timestamp,accel_x,accel_y,accel_z,gyro_x,gyro_y,gyro_z
0.0006976760000725335,-0.008544921875,0.998291015625,-0.020751953125,2.3040771484375,-0.86212158203125,0.4730224609375
0.0007461331738340959,-0.00927734375,0.997802734375,-0.02099609375,2.31170654296875,-0.8697509765625,0.46539306640625
0.0007945903480504057,-0.00927734375,0.997314453125,-0.020751953125,2.29644775390625,-0.84686279296875,0.457763671875
0.0008430475218119682,-0.008544921875,0.997802734375,-0.020751953125,2.32696533203125,-0.8392333984375,0.48065185546875
0.0008915046955735306,-0.009033203125,0.998046875,-0.0205078125,2.29644775390625,-0.8544921875,0.46539306640625
0.0009399618697898404,-0.008544921875,0.99755859375,-0.0205078125,2.2735595703125,-0.87738037109375,0.4730224609375
0.0009884190435514029,-0.0087890625,0.998291015625,-0.020263671875,2.288818359375,-0.8544921875,0.4730224609375
0.0010368762173129653,-0.009033203125,0.998291015625,-0.020263671875,2.3193359375,-0.8392333984375,0.45013427734375
0.0010853333910745278,-0.009033203125,0.998291015625,-0.020263671875,2.3193359375,-0.8544921875,0.457763671875
0.0011337905652908375,-0.0087890625,0.998046875,-0.020263671875,2.3040771484375,-0.8392333984375,0.46539306640625
0.0011822477390524,-0.009033203125,0.997314453125,-0.020751953125,2.31170654296875,-0.84686279296875,0.4730224609375
0.0012307049128139624,-0.008544921875,0.998046875,-0.020751953125,2.31170654296875,-0.8544921875,0.457763671875
0.0012791620870302722,-0.00830078125,0.997802734375,-0.020751953125,2.3040771484375,-0.8697509765625,0.45013427734375
0.0013276192607918347,-0.00830078125,0.998779296875,-0.0205078125,2.28118896484375,-0.8697509765625,0.48828125
0.0013760764345533971,-0.008544921875,0.998291015625,-0.0205078125,2.29644775390625,-0.87738037109375,0.48065185546875
0.001424533608769707,-0.009033203125,0.998291015625,-0.020751953125,2.3193359375,-0.8392333984375,0.46539306640625
0.0014729907825312694,-0.009033203125,0.998046875,-0.020751953125,2.28118896484375,-0.84686279296875,0.457763671875
0.0015214479562928318,-0.00830078125,0.997314453125,-0.0205078125,2.288818359375,-0.8544921875,0.48065185546875
0.0015699051300543942,-0.008544921875,0.998046875,-0.02099609375,2.288818359375,-0.8544921875,0.45013427734375
0.001618362304270704,-0.0087890625,0.997802734375,-0.02099609375,2.288818359375,-0.8697509765625,0.457763671875
0.0016668194780322665,-0.0087890625,0.997802734375,-0.020751953125,2.3040771484375,-0.86212158203125,0.49591064453125
0.001715276651793829,-0.009033203125,0.997802734375,-0.02099609375,2.3040771484375,-0.8544921875,0.4730224609375
0.0017637338260101387,-0.009033203125,0.997314453125,-0.020751953125,2.3345947265625,-0.8544921875,0.48065185546875
0.0018121909997717012,-0.009033203125,0.998046875,-0.0205078125,2.349853515625,-0.87738037109375,0.46539306640625
0.001873524912753055,-0.0087890625,0.998291015625,-0.0205078125,2.3040771484375,-0.86212158203125,0.43487548828125
0.001934858825734409,-0.0087890625,0.998779296875,-0.02099609375,2.28118896484375,-0.8544921875,0.457763671875
0.001996192738715763,-0.00830078125,0.99853515625,-0.020751953125,2.2735595703125,-0.86212158203125,0.457763671875
0.0020575266521518643,-0.00830078125,0.998046875,-0.0205078125,2.288818359375,-0.86212158203125,0.48065185546875
0.002118860565133218,-0.00830078125,0.99853515625,-0.020263671875,2.288818359375,-0.8392333984375,0.45013427734375
0.002180194478114572,-0.009033203125,0.997802734375,-0.02099609375,2.32696533203125,-0.86212158203125,0.42724609375
0.002241528391095926,-0.0087890625,0.998046875,-0.020751953125,2.3193359375,-0.8392333984375,0.45013427734375
0.00230286230407728,-0.0087890625,0.998291015625,-0.020263671875,2.3193359375,-0.8544921875,0.4730224609375
0.002364196217058634,-0.009033203125,0.998291015625,-0.021240234375,2.28118896484375,-0.8544921875,0.46539306640625
0.002425530130039988,-0.009033203125,0.998291015625,-0.021484375,2.2735595703125,-0.8544921875,0.457763671875
0.002486864043021342,-0.009033203125,0.99755859375,-0.020751953125,2.288818359375,-0.86212158203125,0.46539306640625
0.002548197956457443,-0.00927734375,0.99755859375,-0.021240234375,2.29644775390625,-0.84686279296875,0.46539306640625
0.002609531869438797,-0.00830078125,0.997802734375,-0.02099609375,2.29644775390625,-0.8697509765625,0.46539306640625
0.002670865782420151,-0.009033203125,0.998046875,-0.021484375,2.3040771484375,-0.87738037109375,0.48065185546875
0.002732199695401505,-0.009033203125,0.998046875,-0.0205078125,2.288818359375,-0.8697509765625,0.4730224609375
0.002793533608382859,-0.0087890625,0.997802734375,-0.019775390625,2.288818359375,-0.83160400390625,0.4730224609375
0.0028548675213642127,-0.00927734375,0.998046875,-0.020263671875,2.3040771484375,-0.823974609375,0.4730224609375
0.0029162014343455667,-0.008544921875,0.998291015625,-0.0205078125,2.2735595703125,-0.84686279296875,0.46539306640625
0.0029775353473269206,-0.009033203125,0.997314453125,-0.0205078125,2.29644775390625,-0.8544921875,0.4425048828125
0.003038869260763022,-0.009521484375,0.997802734375,-0.020263671875,2.31170654296875,-0.86212158203125,0.4730224609375
0.003100203173744376,-0.00927734375,0.998046875,-0.0205078125,2.32696533203125,-0.8697509765625,0.4730224609375
0.0031615370867257298,-0.00927734375,0.997802734375,-0.0205078125,2.31170654296875,-0.87738037109375,0.46539306640625
0.0032228709997070837,-0.009033203125,0.997802734375,-0.02099609375,2.31170654296875,-0.8544921875,0.4730224609375
0.0032731162268646585,-0.0087890625,0.998046875,-0.021240234375,2.288818359375,-0.8392333984375,0.42724609375
0.0033233614544769807,-0.008544921875,0.998291015625,-0.020751953125,2.29644775390625,-0.84686279296875,0.46539306640625
0.0033736066816345556,-0.0087890625,0.998046875,-0.02099609375,2.28118896484375,-0.86212158203125,0.457763671875
0.0034238519087921304,-0.00830078125,0.998291015625,-0.020751953125,2.288818359375,-0.8544921875,0.49591064453125
0.0034740971359497053,-0.008544921875,0.998046875,-0.0205078125,2.31170654296875,-0.86212158203125,0.48065185546875
0.0035243423635620275,-0.008544921875,0.997802734375,-0.0205078125,2.288818359375,-0.8544921875,0.46539306640625
0.0035745875907196023,-0.008056640625,0.99853515625,-0.01953125,2.2735595703125,-0.8392333984375,0.45013427734375
0.003624832817877177,-0.008544921875,0.99853515625,-0.0205078125,2.3193359375,-0.86212158203125,0.4730224609375
0.003675078045034752,-0.00927734375,0.998291015625,-0.0205078125,2.29644775390625,-0.8697509765625,0.48065185546875
0.003725323272647074,-0.009033203125,0.998291015625,-0.02099609375,2.28118896484375,-0.8697509765625,0.457763671875
0.003775568499804649,-0.0087890625,0.998046875,-0.020751953125,2.29644775390625,-0.87738037109375,0.42724609375
0.003825813726962224,-0.00927734375,0.997802734375,-0.02099609375,2.29644775390625,-0.8544921875,0.49591064453125
0.003876058954574546,-0.0087890625,0.99853515625,-0.020751953125,2.29644775390625,-0.8392333984375,0.48065185546875
0.003926304181732121,-0.0087890625,0.998046875,-0.020751953125,2.2735595703125,-0.86212158203125,0.46539306640625
0.003976549408889696,-0.00830078125,0.99755859375,-0.0205078125,2.29644775390625,-0.8544921875,0.43487548828125
0.004026794636047271,-0.008544921875,0.997802734375,-0.02099609375,2.29644775390625,-0.84686279296875,0.457763671875
0.004077039863659593,-0.009033203125,0.997802734375,-0.02099609375,2.288818359375,-0.86212158203125,0.46539306640625
0.004127285090817168,-0.0087890625,0.997802734375,-0.02099609375,2.29644775390625,-0.84686279296875,0.45013427734375
0.0041775303179747425,-0.00927734375,0.99853515625,-0.020263671875,2.29644775390625,-0.87738037109375,0.48065185546875
0.004227775545132317,-0.009521484375,0.998046875,-0.0205078125,2.3040771484375,-0.83160400390625,0.4730224609375
0.0042780207727446395,-0.009033203125,0.998046875,-0.020751953125,2.2735595703125,-0.8392333984375,0.46539306640625
0.004328265999902214,-0.009033203125,0.997802734375,-0.020751953125,2.2735595703125,-0.87738037109375,0.46539306640625
0.004717408642591181,-0.009033203125,0.998046875,-0.020263671875,2.3040771484375,-0.8544921875,0.46539306640625
0.005106551285734895,-0.008544921875,0.998046875,-0.02001953125,2.29644775390625,-0.8392333984375,0.46539306640625
0.0054956939284238615,-0.00927734375,0.997802734375,-0.0205078125,2.3193359375,-0.86212158203125,0.4730224609375
0.005884836571112828,-0.008544921875,0.998046875,-0.020263671875,2.31170654296875,-0.86212158203125,0.46539306640625
0.006273979214256542,-0.009033203125,0.998291015625,-0.021240234375,2.29644775390625,-0.86212158203125,0.46539306640625
0.006663121856945509,-0.008544921875,0.998046875,-0.021240234375,2.288818359375,-0.86212158203125,0.4730224609375
0.007052264499634475,-0.0087890625,0.997802734375,-0.020751953125,2.29644775390625,-0.8697509765625,0.46539306640625
0.007441407142778189,-0.0087890625,0.998046875,-0.020751953125,2.288818359375,-0.87738037109375,0.5035400390625
0.007830549785467156,-0.008544921875,0.998291015625,-0.0205078125,2.288818359375,-0.8697509765625,0.4730224609375
0.00821969242861087,-0.0087890625,0.99755859375,-0.020751953125,2.3040771484375,-0.8544921875,0.4730224609375
0.008608835071299836,-0.008544921875,0.998046875,-0.020751953125,2.3040771484375,-0.8392333984375,0.4730224609375
0.008997977713988803,-0.00927734375,0.998046875,-0.020751953125,2.29644775390625,-0.87738037109375,0.4730224609375
0.009387120357132517,-0.009033203125,0.99755859375,-0.020263671875,2.288818359375,-0.8544921875,0.45013427734375
0.009776262999821483,-0.009033203125,0.998046875,-0.020751953125,2.34222412109375,-0.8544921875,0.4425048828125
0.019961556999987806,-0.0087890625,0.998046875,-0.020263671875,2.31170654296875,-0.8697509765625,0.4730224609375
0.029813052999998035,-0.00830078125,0.997802734375,-0.021484375,2.288818359375,-0.84686279296875,0.4730224609375
0.039611363999938476,-0.00830078125,0.99755859375,-0.020263671875,2.288818359375,-0.84686279296875,0.48065185546875
0.0493903470000987,-0.009033203125,0.998046875,-0.02001953125,2.28118896484375,-0.9002685546875,0.49591064453125
0.059165073999793094,-0.008544921875,0.99755859375,-0.020263671875,2.29644775390625,-0.86212158203125,0.49591064453125
0.07000561099994229,-0.0087890625,0.997802734375,-0.020751953125,2.29644775390625,-0.83160400390625,0.48065185546875
0.07976152099990941,-0.009033203125,0.998046875,-0.020751953125,2.29644775390625,-0.8544921875,0.4730224609375
0.08953413600011118,-0.009033203125,0.997802734375,-0.02099609375,2.28118896484375,-0.86212158203125,0.49591064453125
0.10035784000001513,-0.008544921875,0.997314453125,-0.0205078125,2.288818359375,-0.86212158203125,0.48065185546875
0.11009695099983219,-0.00927734375,0.997802734375,-0.020263671875,2.288818359375,-0.8697509765625,0.46539306640625
0.11997900699998354,-0.00927734375,0.998046875,-0.02099609375,2.25830078125,-0.84686279296875,0.457763671875
0.1297859910000625,-0.008544921875,0.998291015625,-0.020751953125,2.2735595703125,-0.8697509765625,0.46539306640625
0.13956650999989506,-0.009033203125,0.9990234375,-0.021240234375,2.29644775390625,-0.84686279296875,0.4730224609375
0.1494492699998773,-0.009033203125,0.998779296875,-0.0205078125,2.3040771484375,-0.8544921875,0.457763671875
0.15928150199988522,-0.0087890625,0.99755859375,-0.020751953125,2.288818359375,-0.83160400390625,0.518798828125
0.1691391740000654,-0.009033203125,0.997802734375,-0.020263671875,2.2735595703125,-0.83160400390625,0.49591064453125
0.1801308499998413,-0.00830078125,0.997802734375,-0.02001953125,2.29644775390625,-0.8544921875,0.5035400390625
0.18988346400010414,-0.008056640625,0.99755859375,-0.020263671875,2.32696533203125,-0.8544921875,0.49591064453125
0.1996509909999986,-0.0087890625,0.997802734375,-0.021240234375,2.3040771484375,-0.8697509765625,0.457763671875
0.2094317979999687,-0.00927734375,0.997802734375,-0.0205078125,2.2735595703125,-0.86212158203125,0.48828125
0.2192016919998423,-0.008544921875,0.998046875,-0.020263671875,2.2735595703125,-0.86212158203125,0.46539306640625
0.22905129999981,-0.008544921875,0.99853515625,-0.019775390625,2.29644775390625,-0.86212158203125,0.48065185546875
0.2399113579999721,-0.00927734375,0.998779296875,-0.020751953125,2.3193359375,-0.86212158203125,0.46539306640625
0.2496561319999273,-0.00927734375,0.998291015625,-0.020263671875,2.2735595703125,-0.8697509765625,0.48065185546875
0.25940666599990436,-0.008544921875,0.997802734375,-0.020263671875,2.288818359375,-0.8544921875,0.45013427734375
0.2691732969997247,-0.009033203125,0.997802734375,-0.02099609375,2.28118896484375,-0.86212158203125,0.4425048828125
0.2791201549998732,-0.009033203125,0.997802734375,-0.020263671875,2.29644775390625,-0.8697509765625,0.48828125
0.2890765490001286,-0.009033203125,0.997802734375,-0.0205078125,2.288818359375,-0.8392333984375,0.48065185546875
0.2999615979997543,-0.0087890625,0.998291015625,-0.02099609375,2.28118896484375,-0.84686279296875,0.48828125
0.3097574779999377,-0.008544921875,0.99755859375,-0.020263671875,2.32696533203125,-0.84686279296875,0.4730224609375
0.31957367699988026,-0.00927734375,0.998046875,-0.02099609375,2.3193359375,-0.8392333984375,0.48065185546875
0.3293364040000597,-0.008544921875,0.997802734375,-0.0205078125,2.3193359375,-0.84686279296875,0.5035400390625
0.33911557900000844,-0.009033203125,0.99755859375,-0.021240234375,2.288818359375,-0.86212158203125,0.48828125
0.3499858760001189,-0.009033203125,0.998291015625,-0.020751953125,2.3040771484375,-0.86212158203125,0.46539306640625
0.35977893900007984,-0.00927734375,0.997802734375,-0.020751953125,2.31170654296875,-0.83160400390625,0.45013427734375
0.3695977630000016,-0.0087890625,0.998291015625,-0.021240234375,2.29644775390625,-0.8697509765625,0.48065185546875
0.37935136899977806,-0.009033203125,0.998046875,-0.02099609375,2.31170654296875,-0.86212158203125,0.457763671875
0.38922085000012885,-0.008544921875,0.99755859375,-0.0205078125,2.3040771484375,-0.8544921875,0.49591064453125
0.40015181999979177,-0.009033203125,0.998046875,-0.021240234375,2.29644775390625,-0.8392333984375,0.4730224609375
0.409946674999901,-0.008544921875,0.998046875,-0.0205078125,2.3193359375,-0.8392333984375,0.4730224609375
0.4197025220000796,-0.008056640625,0.997802734375,-0.020751953125,2.32696533203125,-0.86212158203125,0.48065185546875
0.42947535999974207,-0.008056640625,0.998046875,-0.0205078125,2.3040771484375,-0.8544921875,0.4730224609375
0.43929479200005517,-0.008544921875,0.99853515625,-0.0205078125,2.288818359375,-0.86212158203125,0.45013427734375
0.44910699100000784,-0.0087890625,0.99853515625,-0.020263671875,2.288818359375,-0.8697509765625,0.46539306640625
0.45998477700004514,-0.0087890625,0.99755859375,-0.02099609375,2.288818359375,-0.86212158203125,0.45013427734375
0.4697852320000493,-0.0087890625,0.997802734375,-0.02099609375,2.288818359375,-0.8392333984375,0.46539306640625
0.4795852399997784,-0.0087890625,0.997802734375,-0.0205078125,2.3040771484375,-0.84686279296875,0.4425048828125
0.4893455979999999,-0.009521484375,0.998046875,-0.0205078125,2.3040771484375,-0.84686279296875,0.4425048828125
0.49912266100000124,-0.00927734375,0.998046875,-0.020263671875,2.2735595703125,-0.8544921875,0.457763671875
0.5099963180000486,-0.00927734375,0.998046875,-0.0205078125,2.31170654296875,-0.86212158203125,0.4730224609375
0.5198030460001064,-0.0087890625,0.997802734375,-0.021240234375,2.3040771484375,-0.89263916015625,0.45013427734375
0.5296507339999152,-0.00927734375,0.99853515625,-0.0205078125,2.2735595703125,-0.8697509765625,0.48828125
0.5394624850000582,-0.009033203125,0.998291015625,-0.0205078125,2.29644775390625,-0.86212158203125,0.4730224609375
0.5492635169998721,-0.009033203125,0.998046875,-0.021240234375,2.2735595703125,-0.83160400390625,0.457763671875
0.5590966439999647,-0.008544921875,0.998046875,-0.021240234375,2.25830078125,-0.86212158203125,0.457763671875
0.5700341110000409,-0.0087890625,0.998291015625,-0.020751953125,2.28118896484375,-0.87738037109375,0.4730224609375
0.5798052219997771,-0.00830078125,0.997802734375,-0.020751953125,2.288818359375,-0.8544921875,0.4730224609375
0.5895514039998488,-0.008056640625,0.997802734375,-0.0205078125,2.29644775390625,-0.8697509765625,0.5035400390625
0.5992884339998454,-0.008544921875,0.997802734375,-0.021484375,2.3040771484375,-0.86212158203125,0.46539306640625
0.6101522359999763,-0.008544921875,0.997802734375,-0.021728515625,2.3040771484375,-0.8544921875,0.46539306640625
0.6199785789999623,-0.008056640625,0.997802734375,-0.02099609375,2.29644775390625,-0.8544921875,0.5035400390625
0.6297801219998291,-0.00830078125,0.998046875,-0.02099609375,2.29644775390625,-0.86212158203125,0.46539306640625
0.6395454089997656,-0.00830078125,0.998291015625,-0.021240234375,2.31170654296875,-0.8697509765625,0.45013427734375
0.6492849669998577,-0.008544921875,0.997802734375,-0.02099609375,2.3040771484375,-0.87738037109375,0.49591064453125
0.6601451209999141,-0.00927734375,0.997802734375,-0.0205078125,2.32696533203125,-0.8697509765625,0.46539306640625
0.6699146309997559,-0.009521484375,0.998046875,-0.020751953125,2.3040771484375,-0.885009765625,0.46539306640625
0.6796752780001043,-0.0087890625,0.998779296875,-0.0205078125,2.3040771484375,-0.8697509765625,0.4730224609375
0.6894384839997656,-0.0087890625,0.99853515625,-0.021240234375,2.29644775390625,-0.8697509765625,0.45013427734375
0.6992995169998721,-0.00927734375,0.998291015625,-0.020751953125,2.29644775390625,-0.8392333984375,0.457763671875
0.7090944040000977,-0.00927734375,0.998046875,-0.020263671875,2.29644775390625,-0.84686279296875,0.49591064453125
0.7199282530000346,-0.009033203125,0.998046875,-0.020751953125,2.288818359375,-0.84686279296875,0.4730224609375
0.7296697950000635,-0.009033203125,0.998046875,-0.02099609375,2.29644775390625,-0.8544921875,0.45013427734375
0.739412904999881,-0.009765625,0.997314453125,-0.02099609375,2.29644775390625,-0.8697509765625,0.457763671875
0.7491799199997331,-0.0087890625,0.998291015625,-0.02099609375,2.3040771484375,-0.86212158203125,0.46539306640625
0.7600121049999871,-0.0087890625,0.99853515625,-0.021240234375,2.29644775390625,-0.8544921875,0.4730224609375
0.7697494869998991,-0.009033203125,0.998291015625,-0.02099609375,2.29644775390625,-0.8697509765625,0.48828125
0.7795354780000707,-0.009033203125,0.998046875,-0.020751953125,2.28118896484375,-0.83160400390625,0.457763671875
0.7903848470000412,-0.0087890625,0.998291015625,-0.02099609375,2.29644775390625,-0.86212158203125,0.457763671875
0.7991128999997272,-0.009033203125,0.99755859375,-0.02099609375,2.288818359375,-0.84686279296875,0.46539306640625
0.809957501000099,-0.009033203125,0.998046875,-0.02001953125,2.28118896484375,-0.8697509765625,0.4730224609375
0.8196977949996835,-0.009033203125,0.998291015625,-0.020751953125,2.3040771484375,-0.8697509765625,0.46539306640625
0.8294496089997665,-0.008544921875,0.997802734375,-0.020751953125,2.28118896484375,-0.84686279296875,0.4730224609375
0.8391911839999011,-0.009521484375,0.997802734375,-0.02099609375,2.288818359375,-0.86212158203125,0.4730224609375
0.850019943999996,-0.009033203125,0.99755859375,-0.020751953125,2.28118896484375,-0.86212158203125,0.4425048828125
0.8597833750000063,-0.009033203125,0.99755859375,-0.02099609375,2.288818359375,-0.8544921875,0.457763671875
0.8695548380001128,-0.0087890625,0.998291015625,-0.02099609375,2.28118896484375,-0.8544921875,0.46539306640625
0.8793134679999639,-0.009033203125,0.998046875,-0.0205078125,2.3040771484375,-0.8697509765625,0.4730224609375
0.8890817950000383,-0.008544921875,0.99755859375,-0.0205078125,2.3193359375,-0.86212158203125,0.46539306640625
0.8999259799998072,-0.009033203125,0.9970703125,-0.0205078125,2.29644775390625,-0.86212158203125,0.4730224609375
0.9096683859997938,-0.009033203125,0.9970703125,-0.020263671875,2.26593017578125,-0.8697509765625,0.45013427734375
0.9194179930000246,-0.008544921875,0.99853515625,-0.0205078125,2.28118896484375,-0.8697509765625,0.4730224609375
0.9292100960001335,-0.008544921875,0.998291015625,-0.020751953125,2.29644775390625,-0.84686279296875,0.46539306640625
0.9400455449999754,-0.008544921875,0.99853515625,-0.020751953125,2.2735595703125,-0.8544921875,0.45013427734375
0.9497888149999199,-0.00830078125,0.998046875,-0.0205078125,2.2735595703125,-0.8392333984375,0.45013427734375
0.9595573020001211,-0.009033203125,0.997802734375,-0.020751953125,2.28118896484375,-0.8697509765625,0.457763671875
0.9692957080001179,-0.008544921875,0.997802734375,-0.020751953125,2.28118896484375,-0.8697509765625,0.4730224609375
0.9792878139996901,-0.0087890625,0.998046875,-0.0205078125,2.32696533203125,-0.8544921875,0.4730224609375
0.9890956939998432,-0.00927734375,0.998291015625,-0.020263671875,2.29644775390625,-0.87738037109375,0.457763671875
0.9999705029999859,-0.0087890625,0.998046875,-0.0205078125,2.288818359375,-0.87738037109375,0.48065185546875
1.0098050389997297,-0.009033203125,0.998779296875,-0.020263671875,2.29644775390625,-0.86212158203125,0.46539306640625
1.0195473169997058,-0.00927734375,0.998046875,-0.02099609375,2.25830078125,-0.8544921875,0.457763671875
1.02932262000013,-0.009033203125,0.998291015625,-0.020751953125,2.29644775390625,-0.8544921875,0.46539306640625
1.0393029819997537,-0.008544921875,0.997802734375,-0.020751953125,2.29644775390625,-0.8544921875,0.45013427734375
1.0491055489997052,-0.0087890625,0.997802734375,-0.02099609375,2.29644775390625,-0.8544921875,0.46539306640625
1.0598938299999645,-0.008544921875,0.998291015625,-0.02099609375,2.288818359375,-0.8697509765625,0.46539306640625
1.0695741549998274,-0.00830078125,0.99853515625,-0.020263671875,2.3040771484375,-0.885009765625,0.48065185546875
1.0792451039997104,-0.009033203125,0.997802734375,-0.020263671875,2.2735595703125,-0.87738037109375,0.46539306640625
1.0900624079999943,-0.009033203125,0.998046875,-0.02099609375,2.28118896484375,-0.86212158203125,0.49591064453125
1.0998447510000915,-0.008544921875,0.998291015625,-0.021240234375,2.288818359375,-0.8392333984375,0.4730224609375
1.109743191999769,-0.00830078125,0.998046875,-0.02099609375,2.2735595703125,-0.86212158203125,0.457763671875
1.1195452789997944,-0.009033203125,0.99755859375,-0.02099609375,2.288818359375,-0.8544921875,0.4730224609375
1.1292927740000778,-0.009033203125,0.998046875,-0.02099609375,2.288818359375,-0.86212158203125,0.5035400390625
1.1393787699998938,-0.009033203125,0.99755859375,-0.02099609375,2.3345947265625,-0.8697509765625,0.4730224609375
1.1492794830001003,-0.009033203125,0.99755859375,-0.0205078125,2.31170654296875,-0.8392333984375,0.46539306640625
1.159087265999915,-0.009033203125,0.998291015625,-0.0205078125,2.26593017578125,-0.8392333984375,0.43487548828125
1.169995163999829,-0.009033203125,0.99853515625,-0.021240234375,2.288818359375,-0.8544921875,0.4730224609375
1.179747426999711,-0.0087890625,0.998046875,-0.020263671875,2.3193359375,-0.86212158203125,0.4730224609375
1.1896106029998919,-0.009033203125,0.997802734375,-0.0205078125,2.32696533203125,-0.8392333984375,0.46539306640625
1.1993690089998381,-0.009033203125,0.998046875,-0.020263671875,2.3040771484375,-0.84686279296875,0.4730224609375
1.2092039929998464,-0.0087890625,0.997802734375,-0.020263671875,2.28118896484375,-0.8697509765625,0.48065185546875
1.219228739999835,-0.008544921875,0.9970703125,-0.02001953125,2.28118896484375,-0.885009765625,0.48065185546875
1.2300797409998268,-0.009033203125,0.997802734375,-0.0205078125,2.3040771484375,-0.86212158203125,0.46539306640625
1.239822084000025,-0.00927734375,0.99755859375,-0.02099609375,2.3040771484375,-0.8697509765625,0.46539306640625
1.249601610999889,-0.00927734375,0.998046875,-0.02099609375,2.3193359375,-0.86212158203125,0.4730224609375
1.2593511529998977,-0.00830078125,0.99853515625,-0.021240234375,2.31170654296875,-0.8392333984375,0.4730224609375
1.2694877099997939,-0.008544921875,0.997802734375,-0.02099609375,2.29644775390625,-0.8392333984375,0.48828125
1.2793098289998852,-0.00927734375,0.99755859375,-0.020263671875,2.2735595703125,-0.8697509765625,0.4730224609375
1.2901655349996872,-0.0087890625,0.998046875,-0.021240234375,2.32696533203125,-0.8697509765625,0.4730224609375
1.2999405169998681,-0.009033203125,0.99853515625,-0.02099609375,2.349853515625,-0.86212158203125,0.4730224609375
1.3096695149997686,-0.009033203125,0.99853515625,-0.021240234375,2.29644775390625,-0.86212158203125,0.4730224609375
1.3194303219997892,-0.009033203125,0.997802734375,-0.0205078125,2.288818359375,-0.8392333984375,0.457763671875
1.3291880890001266,-0.009033203125,0.998046875,-0.019775390625,2.31170654296875,-0.8544921875,0.43487548828125
1.340005968999776,-0.0087890625,0.998046875,-0.020263671875,2.288818359375,-0.8392333984375,0.4730224609375
1.34973973499973,-0.00830078125,0.998046875,-0.0205078125,2.29644775390625,-0.8544921875,0.46539306640625
1.3594664289998946,-0.0087890625,0.997802734375,-0.0205078125,2.288818359375,-0.87738037109375,0.48828125
1.3692022750001343,-0.008544921875,0.998291015625,-0.0205078125,2.32696533203125,-0.8392333984375,0.457763671875
1.380057724999915,-0.008544921875,0.998046875,-0.020751953125,2.3193359375,-0.86212158203125,0.46539306640625
1.389788610999858,-0.008544921875,0.997802734375,-0.0205078125,2.288818359375,-0.8392333984375,0.457763671875
1.399516937000044,-0.009033203125,0.997314453125,-0.02099609375,2.288818359375,-0.8697509765625,0.46539306640625
1.4092493909997756,-0.009033203125,0.997802734375,-0.021240234375,2.3193359375,-0.87738037109375,0.43487548828125
1.420073063000018,-0.00830078125,0.99853515625,-0.020751953125,2.25830078125,-0.8392333984375,0.4730224609375
1.4298136779998458,-0.0087890625,0.99853515625,-0.020263671875,2.288818359375,-0.8544921875,0.4730224609375
1.4395670280000559,-0.009033203125,0.998046875,-0.0205078125,2.29644775390625,-0.84686279296875,0.46539306640625
1.449296633999893,-0.009033203125,0.998046875,-0.020751953125,2.29644775390625,-0.86212158203125,0.5035400390625
1.4601190589996804,-0.0087890625,0.998046875,-0.0205078125,2.288818359375,-0.86212158203125,0.4730224609375
1.4698460409999825,-0.009033203125,0.998291015625,-0.02099609375,2.2735595703125,-0.84686279296875,0.4730224609375
1.4796019189998333,-0.008544921875,0.99853515625,-0.020751953125,2.25067138671875,-0.8392333984375,0.4730224609375
1.4893313970001145,-0.00830078125,0.998291015625,-0.0205078125,2.28118896484375,-0.84686279296875,0.457763671875
1.5001760939999258,-0.00830078125,0.998046875,-0.020751953125,2.3040771484375,-0.8697509765625,0.46539306640625
1.509939108999788,-0.009033203125,0.99755859375,-0.020751953125,2.288818359375,-0.89263916015625,0.4730224609375
1.5198064450000857,-0.00927734375,0.997802734375,-0.02099609375,2.288818359375,-0.8544921875,0.48828125
1.5295864839999922,-0.008544921875,0.99755859375,-0.02099609375,2.3040771484375,-0.86212158203125,0.46539306640625
1.5393201219999355,-0.0087890625,0.998046875,-0.0205078125,2.288818359375,-0.8697509765625,0.46539306640625
1.5501384189997225,-0.008056640625,0.998291015625,-0.0205078125,2.31170654296875,-0.8544921875,0.457763671875
1.5598840889997518,-0.0087890625,0.997802734375,-0.0205078125,2.29644775390625,-0.8392333984375,0.48065185546875
1.5696187829998962,-0.009521484375,0.99755859375,-0.02099609375,2.28118896484375,-0.84686279296875,0.4730224609375
1.5793479409999236,-0.009033203125,0.99755859375,-0.0205078125,2.28118896484375,-0.83160400390625,0.49591064453125
1.5890953709999849,-0.00927734375,0.99755859375,-0.02099609375,2.3193359375,-0.86212158203125,0.457763671875
1.5999360040000283,-0.00830078125,0.997802734375,-0.02099609375,2.288818359375,-0.86212158203125,0.43487548828125
1.6096620260000236,-0.0087890625,0.998779296875,-0.021240234375,2.3040771484375,-0.86212158203125,0.4730224609375
1.6193912159997126,-0.009033203125,0.99853515625,-0.020751953125,2.3345947265625,-0.8392333984375,0.48065185546875
1.6291376869999112,-0.0087890625,0.9970703125,-0.0205078125,2.3040771484375,-0.8544921875,0.457763671875
1.6399552150001,-0.008544921875,0.998046875,-0.02099609375,2.32696533203125,-0.84686279296875,0.46539306640625
1.649680085,-0.009033203125,0.99755859375,-0.021240234375,2.3193359375,-0.8697509765625,0.4425048828125
1.6594390999998723,-0.0087890625,0.998046875,-0.0205078125,2.29644775390625,-0.8544921875,0.4730224609375
1.6692012819999036,-0.008544921875,0.997802734375,-0.020751953125,2.31170654296875,-0.8697509765625,0.45013427734375
1.6800548430001072,-0.008544921875,0.99755859375,-0.020751953125,2.31170654296875,-0.8697509765625,0.46539306640625
1.6898100180001165,-0.0087890625,0.997314453125,-0.020751953125,2.3040771484375,-0.8392333984375,0.48065185546875
1.6995738000000529,-0.009033203125,0.998046875,-0.0205078125,2.288818359375,-0.9002685546875,0.49591064453125
1.7093131030001132,-0.009765625,0.998046875,-0.020263671875,2.288818359375,-0.885009765625,0.457763671875
1.7201324229999955,-0.009033203125,0.99853515625,-0.02099609375,2.3040771484375,-0.8392333984375,0.4730224609375
1.7298638530000972,-0.0087890625,0.998046875,-0.0205078125,2.288818359375,-0.86212158203125,0.48065185546875
1.7396151560001272,-0.009033203125,0.997314453125,-0.0205078125,2.3040771484375,-0.8544921875,0.49591064453125
1.7493467780000174,-0.009033203125,0.998046875,-0.020263671875,2.29644775390625,-0.8392333984375,0.4730224609375
1.7591724489998342,-0.00830078125,0.998291015625,-0.0205078125,2.288818359375,-0.83160400390625,0.48065185546875
1.7700181059999522,-0.00830078125,0.997802734375,-0.020263671875,2.3040771484375,-0.87738037109375,0.457763671875
1.7797504639997896,-0.009033203125,0.998046875,-0.02001953125,2.29644775390625,-0.8697509765625,0.45013427734375
1.789478021999912,-0.008544921875,0.998046875,-0.02001953125,2.3040771484375,-0.8697509765625,0.457763671875
1.7992058360000556,-0.009521484375,0.998046875,-0.020263671875,2.2735595703125,-0.8544921875,0.46539306640625
1.8100345329999072,-0.0087890625,0.997314453125,-0.02001953125,2.3193359375,-0.8697509765625,0.4730224609375
1.8197620589999133,-0.0087890625,0.998046875,-0.0205078125,2.3040771484375,-0.86212158203125,0.4730224609375
1.829484432999834,-0.00927734375,0.997802734375,-0.020751953125,2.29644775390625,-0.8544921875,0.46539306640625
1.8392139110001153,-0.009033203125,0.99853515625,-0.020751953125,2.2735595703125,-0.87738037109375,0.457763671875
1.850030992000029,-0.00830078125,0.99853515625,-0.0205078125,2.288818359375,-0.8544921875,0.51116943359375
1.8597768219997306,-0.008544921875,0.998046875,-0.0205078125,2.28118896484375,-0.8544921875,0.4730224609375
1.8695055640000646,-0.008544921875,0.998046875,-0.0205078125,2.288818359375,-0.8392333984375,0.457763671875
1.8792328019999331,-0.00927734375,0.997802734375,-0.0205078125,2.29644775390625,-0.8697509765625,0.4730224609375
1.8900498819998575,-0.0087890625,0.998046875,-0.020751953125,2.288818359375,-0.8544921875,0.46539306640625
1.8998156170000584,-0.009033203125,0.998046875,-0.020263671875,2.31170654296875,-0.86212158203125,0.46539306640625
1.9095741199998884,-0.009033203125,0.998291015625,-0.020751953125,2.3040771484375,-0.86212158203125,0.46539306640625
1.9192979330000526,-0.0087890625,0.99853515625,-0.020751953125,2.288818359375,-0.8544921875,0.457763671875
1.9301150139999663,-0.00927734375,0.998046875,-0.020751953125,2.29644775390625,-0.8544921875,0.46539306640625
1.9398395640000672,-0.008544921875,0.99755859375,-0.020263671875,2.31170654296875,-0.86212158203125,0.46539306640625
1.9495823859997472,-0.009033203125,0.998291015625,-0.02099609375,2.3193359375,-0.84686279296875,0.457763671875
1.959308632000102,-0.009033203125,0.99853515625,-0.020751953125,2.32696533203125,-0.86212158203125,0.46539306640625
1.970124688999931,-0.009033203125,0.997802734375,-0.020751953125,2.288818359375,-0.8697509765625,0.48065185546875
1.979850999000064,-0.009033203125,0.99755859375,-0.0205078125,2.28118896484375,-0.86212158203125,0.49591064453125
1.98959110099986,-0.0087890625,0.997802734375,-0.0205078125,2.2735595703125,-0.8697509765625,0.49591064453125
1.9995492549996925,-0.008544921875,0.9970703125,-0.0205078125,2.288818359375,-0.8544921875,0.46539306640625
2.0094852960000935,-0.009033203125,0.9970703125,-0.02099609375,2.288818359375,-0.8697509765625,0.4730224609375
2.019299864000004,-0.00927734375,0.9990234375,-0.02001953125,2.28118896484375,-0.885009765625,0.46539306640625
2.02913065499979,-0.008544921875,0.998779296875,-0.0205078125,2.288818359375,-0.84686279296875,0.4730224609375
2.0400164089996906,-0.008544921875,0.997802734375,-0.020751953125,2.3040771484375,-0.86212158203125,0.49591064453125
2.049831136999728,-0.0078125,0.99755859375,-0.0205078125,2.288818359375,-0.87738037109375,0.4730224609375
2.0597433699999783,-0.00927734375,0.998046875,-0.020751953125,2.29644775390625,-0.8544921875,0.4730224609375
2.0699961209998037,-0.00927734375,0.99853515625,-0.02099609375,2.3193359375,-0.8697509765625,0.43487548828125
2.079828095999801,-0.00927734375,0.998779296875,-0.02099609375,2.29644775390625,-0.86212158203125,0.457763671875
2.0895866309997473,-0.00927734375,0.998046875,-0.0205078125,2.288818359375,-0.84686279296875,0.46539306640625
2.0992845559999296,-0.0087890625,0.998291015625,-0.0205078125,2.32696533203125,-0.8392333984375,0.457763671875
2.110123236999698,-0.00927734375,0.998291015625,-0.0205078125,2.28118896484375,-0.86212158203125,0.48065185546875
2.119872555999791,-0.009033203125,0.998046875,-0.0205078125,2.28118896484375,-0.8697509765625,0.48828125
2.1298521179996897,-0.00830078125,0.99755859375,-0.020263671875,2.3193359375,-0.84686279296875,0.46539306640625
2.139634236999882,-0.0087890625,0.998046875,-0.021484375,2.29644775390625,-0.8697509765625,0.48828125
2.1493746269998155,-0.009033203125,0.998291015625,-0.020751953125,2.3040771484375,-0.8697509765625,0.49591064453125
2.1591390180001326,-0.0087890625,0.998046875,-0.020263671875,2.3040771484375,-0.8392333984375,0.49591064453125
2.1700848039999983,-0.00927734375,0.998046875,-0.020751953125,2.29644775390625,-0.86212158203125,0.4730224609375
2.1798317230000066,-0.009033203125,0.99755859375,-0.02099609375,2.29644775390625,-0.86212158203125,0.46539306640625
2.189594801000112,-0.00927734375,0.998046875,-0.0205078125,2.3040771484375,-0.8544921875,0.4730224609375
2.1994228089997705,-0.009033203125,0.998291015625,-0.021240234375,2.3040771484375,-0.8544921875,0.46539306640625
2.2092346239996914,-0.0087890625,0.99853515625,-0.020751953125,2.3040771484375,-0.8392333984375,0.45013427734375
2.2200742649997665,-0.009033203125,0.998046875,-0.020751953125,2.28118896484375,-0.83160400390625,0.457763671875
2.229828415999691,-0.0087890625,0.998046875,-0.020751953125,2.29644775390625,-0.86212158203125,0.46539306640625
2.2395991099997445,-0.009033203125,0.998046875,-0.02099609375,2.288818359375,-0.8544921875,0.457763671875
2.2493378369999846,-0.00927734375,0.99755859375,-0.0205078125,2.3040771484375,-0.86212158203125,0.4730224609375
2.2601633649996984,-0.009521484375,0.998291015625,-0.0205078125,2.3345947265625,-0.87738037109375,0.46539306640625
2.2698955309997473,-0.009033203125,0.998046875,-0.02099609375,2.288818359375,-0.8697509765625,0.49591064453125
2.279632881999987,-0.0087890625,0.99853515625,-0.02099609375,2.32696533203125,-0.8544921875,0.48065185546875
2.2893631599999935,-0.009033203125,0.997802734375,-0.021240234375,2.32696533203125,-0.83160400390625,0.48828125
2.299113789999865,-0.008544921875,0.998046875,-0.02001953125,2.3040771484375,-0.8544921875,0.4730224609375
2.309968662999836,-0.009033203125,0.99755859375,-0.020751953125,2.288818359375,-0.8697509765625,0.46539306640625
2.31970598099997,-0.008056640625,0.997314453125,-0.020263671875,2.3040771484375,-0.8544921875,0.43487548828125
2.3294708519997585,-0.0087890625,0.998046875,-0.02099609375,2.29644775390625,-0.8392333984375,0.457763671875
2.3392258019998735,-0.009033203125,0.99853515625,-0.021240234375,2.28118896484375,-0.8544921875,0.48828125
2.350060579000001,-0.009033203125,0.998291015625,-0.020263671875,2.28118896484375,-0.8544921875,0.48828125
2.3597909529999015,-0.009033203125,0.9970703125,-0.020263671875,2.3040771484375,-0.84686279296875,0.48065185546875
2.3695352149998143,-0.009521484375,0.99755859375,-0.020751953125,2.32696533203125,-0.8544921875,0.45013427734375
2.380345640000087,-0.0087890625,0.998046875,-0.02099609375,2.288818359375,-0.8697509765625,0.46539306640625
2.390074926000125,-0.0087890625,0.998046875,-0.0205078125,2.28118896484375,-0.86212158203125,0.46539306640625
2.3999116059999324,-0.00830078125,0.998779296875,-0.021484375,2.3193359375,-0.84686279296875,0.457763671875
2.409652475999792,-0.00830078125,0.998291015625,-0.02099609375,2.288818359375,-0.84686279296875,0.457763671875
2.419389570000021,-0.008056640625,0.9970703125,-0.020751953125,2.29644775390625,-0.8544921875,0.457763671875
2.4291403600000194,-0.008544921875,0.998046875,-0.0205078125,2.31170654296875,-0.86212158203125,0.4730224609375
2.439971617000083,-0.009521484375,0.99853515625,-0.020751953125,2.28118896484375,-0.86212158203125,0.46539306640625
2.4496974789999513,-0.00927734375,0.997802734375,-0.02099609375,2.28118896484375,-0.8392333984375,0.49591064453125
2.459436588999779,-0.008544921875,0.99853515625,-0.0205078125,2.3040771484375,-0.83160400390625,0.4730224609375
2.469190611999693,-0.008544921875,0.99755859375,-0.021240234375,2.29644775390625,-0.86212158203125,0.457763671875
2.4800121079997552,-0.008544921875,0.998046875,-0.020751953125,2.288818359375,-0.87738037109375,0.46539306640625
2.4897409459999835,-0.009033203125,0.997802734375,-0.020263671875,2.29644775390625,-0.8697509765625,0.5035400390625
2.499466807999852,-0.008544921875,0.997802734375,-0.020751953125,2.29644775390625,-0.8697509765625,0.48828125
2.5092219190000833,-0.009033203125,0.997802734375,-0.020263671875,2.29644775390625,-0.87738037109375,0.48065185546875
2.5200420389996907,-0.00927734375,0.998046875,-0.02001953125,2.29644775390625,-0.8392333984375,0.4730224609375
2.5297838060000686,-0.0087890625,0.998291015625,-0.0205078125,2.29644775390625,-0.8392333984375,0.4730224609375
2.5395105960001274,-0.00927734375,0.997802734375,-0.02099609375,2.3040771484375,-0.84686279296875,0.4730224609375
2.5492404579999857,-0.009033203125,0.997314453125,-0.0205078125,2.31170654296875,-0.87738037109375,0.457763671875
2.560203524999906,-0.0087890625,0.99755859375,-0.0205078125,2.3040771484375,-0.8544921875,0.4730224609375
2.5700304439997126,-0.009521484375,0.99755859375,-0.02099609375,2.288818359375,-0.8544921875,0.45013427734375
2.5798469000001205,-0.00927734375,0.99853515625,-0.020751953125,2.29644775390625,-0.8544921875,0.43487548828125
2.5896550349998506,-0.00927734375,0.998291015625,-0.0205078125,2.3193359375,-0.84686279296875,0.46539306640625
2.5994358419998207,-0.009033203125,0.998046875,-0.02099609375,2.3193359375,-0.86212158203125,0.48828125
2.6092169690000446,-0.0087890625,0.997802734375,-0.021240234375,2.28118896484375,-0.87738037109375,0.4730224609375
2.6200626899999406,-0.008544921875,0.997802734375,-0.021240234375,2.29644775390625,-0.8697509765625,0.48065185546875
2.6298530330000176,-0.008544921875,0.99853515625,-0.02099609375,2.3193359375,-0.8544921875,0.4730224609375
2.6396786729997075,-0.00830078125,0.99853515625,-0.020751953125,2.288818359375,-0.8544921875,0.4730224609375
2.649484535999818,-0.008056640625,0.997802734375,-0.021240234375,2.28118896484375,-0.83160400390625,0.46539306640625
2.6592842229997586,-0.009033203125,0.997314453125,-0.02099609375,2.2735595703125,-0.8544921875,0.42724609375
2.670131255999877,-0.008544921875,0.998046875,-0.0205078125,2.28118896484375,-0.8544921875,0.457763671875
2.6798808630001076,-0.009033203125,0.998046875,-0.0205078125,2.349853515625,-0.8697509765625,0.46539306640625
2.6896469170001183,-0.00927734375,0.998291015625,-0.02099609375,2.28118896484375,-0.86212158203125,0.48065185546875
2.69941655599996,-0.009033203125,0.99853515625,-0.020263671875,2.28118896484375,-0.86212158203125,0.48065185546875
2.7092168509998373,-0.009033203125,0.99755859375,-0.0205078125,2.29644775390625,-0.84686279296875,0.48065185546875
2.7200738999999885,-0.009033203125,0.997802734375,-0.0205078125,2.29644775390625,-0.84686279296875,0.49591064453125
2.729857554999853,-0.008056640625,0.997802734375,-0.020751953125,2.3040771484375,-0.8544921875,0.48828125
2.7397154519999276,-0.0087890625,0.998046875,-0.0205078125,2.29644775390625,-0.8544921875,0.457763671875
2.7495044190000044,-0.0087890625,0.998046875,-0.020263671875,2.3040771484375,-0.8544921875,0.4730224609375
2.7592883930001335,-0.009765625,0.998291015625,-0.020263671875,2.28118896484375,-0.86212158203125,0.457763671875
2.770135714999924,-0.008544921875,0.99755859375,-0.020751953125,2.29644775390625,-0.84686279296875,0.43487548828125
2.7798832409998795,-0.0087890625,0.998046875,-0.020751953125,2.29644775390625,-0.8544921875,0.48065185546875
2.789650318999975,-0.009521484375,0.997802734375,-0.020263671875,2.3040771484375,-0.8544921875,0.5035400390625
2.799399541999719,-0.009033203125,0.998046875,-0.019775390625,2.25830078125,-0.8544921875,0.5035400390625
2.809170236999762,-0.009033203125,0.998046875,-0.02099609375,2.28118896484375,-0.8697509765625,0.48828125
2.820165655999972,-0.009033203125,0.99853515625,-0.02099609375,2.29644775390625,-0.8544921875,0.48065185546875
2.829900958000053,-0.008544921875,0.99853515625,-0.020263671875,2.288818359375,-0.8697509765625,0.49591064453125
2.8396260519998577,-0.009033203125,0.998046875,-0.020751953125,2.3040771484375,-0.86212158203125,0.48065185546875
2.849484427999869,-0.0087890625,0.998291015625,-0.02001953125,2.288818359375,-0.8544921875,0.457763671875
2.8592414909999206,-0.009521484375,0.99853515625,-0.020751953125,2.3040771484375,-0.8697509765625,0.4730224609375
2.8700764599998365,-0.00927734375,0.998046875,-0.021240234375,2.28118896484375,-0.8697509765625,0.4425048828125
2.879840753999815,-0.009033203125,0.997802734375,-0.020263671875,2.31170654296875,-0.885009765625,0.46539306640625
2.8896032249999735,-0.0087890625,0.997314453125,-0.02099609375,2.3193359375,-0.8392333984375,0.51116943359375
2.899351167000077,-0.009765625,0.997314453125,-0.020751953125,2.31170654296875,-0.86212158203125,0.48065185546875
2.910179735999918,-0.0087890625,0.998291015625,-0.020751953125,2.31170654296875,-0.8544921875,0.48828125
2.919910205999713,-0.009033203125,0.997802734375,-0.02001953125,2.288818359375,-0.8544921875,0.4730224609375
2.9296360039998035,-0.009033203125,0.998046875,-0.020263671875,2.3193359375,-0.86212158203125,0.457763671875
2.93937840999979,-0.009033203125,0.998046875,-0.020751953125,2.31170654296875,-0.8544921875,0.46539306640625
2.9491264160001265,-0.009033203125,0.998046875,-0.02099609375,2.2735595703125,-0.86212158203125,0.48828125
2.959972552999716,-0.008544921875,0.998046875,-0.0205078125,2.29644775390625,-0.8544921875,0.49591064453125
2.9697042069997224,-0.0078125,0.998779296875,-0.02099609375,2.29644775390625,-0.84686279296875,0.46539306640625
2.9794305489999715,-0.008056640625,0.997802734375,-0.020263671875,2.3040771484375,-0.86212158203125,0.4730224609375
2.989168732000053,-0.009033203125,0.997802734375,-0.020751953125,2.288818359375,-0.87738037109375,0.49591064453125
3.0000863579998622,-0.009033203125,0.998046875,-0.020263671875,2.28118896484375,-0.8392333984375,0.4730224609375
3.0098505239998303,-0.00830078125,0.9990234375,-0.020263671875,2.3040771484375,-0.8544921875,0.48065185546875
3.019630978999885,-0.009765625,0.997802734375,-0.021484375,2.3040771484375,-0.8392333984375,0.46539306640625
3.029533804000039,-0.009765625,0.997802734375,-0.021484375,2.2735595703125,-0.8544921875,0.46539306640625
3.039500022000084,-0.00927734375,0.998046875,-0.020263671875,2.32696533203125,-0.8392333984375,0.46539306640625
3.0492857569997796,-0.009033203125,0.997802734375,-0.019775390625,2.32696533203125,-0.86212158203125,0.5035400390625
3.0601411739999094,-0.0087890625,0.998046875,-0.0205078125,2.32696533203125,-0.8544921875,0.4730224609375
3.0698938529999396,-0.0087890625,0.997802734375,-0.02099609375,2.3040771484375,-0.87738037109375,0.5035400390625
3.0796604189999925,-0.009033203125,0.998046875,-0.021484375,2.29644775390625,-0.8544921875,0.48065185546875
3.089472651000051,-0.00830078125,0.998291015625,-0.020263671875,2.29644775390625,-0.86212158203125,0.457763671875
3.0993067069998688,-0.0087890625,0.99853515625,-0.02099609375,2.28118896484375,-0.8697509765625,0.43487548828125
3.110152939999807,-0.0087890625,0.99755859375,-0.02099609375,2.31170654296875,-0.8544921875,0.4730224609375
3.119919985999786,-0.00830078125,0.997314453125,-0.021240234375,2.28118896484375,-0.823974609375,0.5035400390625
3.129675288999806,-0.009033203125,0.998291015625,-0.020263671875,2.2735595703125,-0.83160400390625,0.5035400390625
3.139425342999857,-0.009765625,0.997802734375,-0.02099609375,2.29644775390625,-0.8544921875,0.48065185546875
3.1492829189996883,-0.009521484375,0.99755859375,-0.02099609375,2.2735595703125,-0.86212158203125,0.48065185546875
3.160139008999977,-0.008544921875,0.998046875,-0.01953125,2.2735595703125,-0.8544921875,0.48065185546875
3.1699309199998424,-0.008544921875,0.998046875,-0.020263671875,2.3345947265625,-0.86212158203125,0.4730224609375
3.1797093579998545,-0.009033203125,0.99853515625,-0.020263671875,2.288818359375,-0.8697509765625,0.4730224609375
3.1895116380001127,-0.009765625,0.998046875,-0.0205078125,2.288818359375,-0.86212158203125,0.457763671875
3.199314428999969,-0.009521484375,0.99755859375,-0.0205078125,2.2735595703125,-0.8697509765625,0.48828125
3.2101617819998864,-0.009033203125,0.998046875,-0.020263671875,2.2735595703125,-0.83160400390625,0.48828125
3.2199558049996995,-0.00830078125,0.998046875,-0.020263671875,2.29644775390625,-0.8697509765625,0.46539306640625
3.229746499999692,-0.00927734375,0.998291015625,-0.020751953125,2.3345947265625,-0.8544921875,0.42724609375
3.2395404909998433,-0.00927734375,0.997802734375,-0.02099609375,2.288818359375,-0.86212158203125,0.4730224609375
3.2504068210000696,-0.00830078125,0.99755859375,-0.02099609375,2.288818359375,-0.86212158203125,0.48828125
3.260243916000036,-0.008544921875,0.997314453125,-0.0205078125,2.29644775390625,-0.84686279296875,0.4730224609375
3.2700404359998174,-0.009033203125,0.99755859375,-0.0205078125,2.31170654296875,-0.8544921875,0.46539306640625
3.279793658000017,-0.009033203125,0.998046875,-0.020751953125,2.2735595703125,-0.8544921875,0.457763671875
3.2895468799997616,-0.00830078125,0.998291015625,-0.020751953125,2.28118896484375,-0.83160400390625,0.4730224609375
3.299298918999739,-0.00830078125,0.99853515625,-0.020751953125,2.32696533203125,-0.87738037109375,0.48065185546875
3.310150687999794,-0.0087890625,0.998046875,-0.020751953125,2.29644775390625,-0.8392333984375,0.4730224609375
3.3199162949999845,-0.009033203125,0.998291015625,-0.021240234375,2.28118896484375,-0.86212158203125,0.46539306640625
3.329668940999909,-0.009765625,0.99755859375,-0.020751953125,2.3193359375,-0.86212158203125,0.457763671875
3.339416019000055,-0.0087890625,0.997802734375,-0.020751953125,2.29644775390625,-0.8392333984375,0.45013427734375
3.3491910019997704,-0.009033203125,0.997314453125,-0.02099609375,2.29644775390625,-0.83160400390625,0.46539306640625
3.360149108999849,-0.009033203125,0.997802734375,-0.020263671875,2.3040771484375,-0.83160400390625,0.46539306640625
3.3699035149998053,-0.0087890625,0.998046875,-0.02099609375,2.28118896484375,-0.86212158203125,0.457763671875
3.3796739859999434,-0.009033203125,0.997802734375,-0.02099609375,2.32696533203125,-0.8544921875,0.46539306640625
3.3894877220000126,-0.0087890625,0.998046875,-0.0205078125,2.288818359375,-0.8697509765625,0.457763671875
3.399301168999955,-0.008544921875,0.997802734375,-0.0205078125,2.29644775390625,-0.885009765625,0.46539306640625
3.410147529999904,-0.009033203125,0.997802734375,-0.020263671875,2.3040771484375,-0.8544921875,0.4730224609375
3.419895439999891,-0.00927734375,0.998291015625,-0.020751953125,2.288818359375,-0.83160400390625,0.45013427734375
3.4296959600001173,-0.008544921875,0.998291015625,-0.02099609375,2.25830078125,-0.8392333984375,0.457763671875
3.439445821999925,-0.0087890625,0.997802734375,-0.020751953125,2.3193359375,-0.86212158203125,0.48828125
3.449305157999788,-0.008544921875,0.997802734375,-0.019775390625,2.3193359375,-0.8544921875,0.4730224609375
3.4601517749997583,-0.0087890625,0.997314453125,-0.02001953125,2.3040771484375,-0.84686279296875,0.48065185546875
3.469900325999788,-0.0087890625,0.998046875,-0.02001953125,2.288818359375,-0.8544921875,0.48828125
3.4797399169997334,-0.00830078125,0.998291015625,-0.02099609375,2.32696533203125,-0.8392333984375,0.4730224609375
3.4895189640001263,-0.008544921875,0.998046875,-0.02099609375,2.28118896484375,-0.84686279296875,0.48065185546875
3.49929973899998,-0.009033203125,0.997802734375,-0.020751953125,2.29644775390625,-0.8544921875,0.46539306640625
3.510148595999908,-0.0087890625,0.997314453125,-0.020751953125,2.2735595703125,-0.8544921875,0.4425048828125
3.5199028749998433,-0.009033203125,0.998291015625,-0.020751953125,2.28118896484375,-0.8544921875,0.42724609375
3.52967958499994,-0.009033203125,0.99853515625,-0.020751953125,2.32696533203125,-0.87738037109375,0.457763671875
3.539502760999767,-0.0087890625,0.9990234375,-0.02099609375,2.32696533203125,-0.86212158203125,0.48828125
3.549310095999772,-0.00927734375,0.998291015625,-0.020751953125,2.29644775390625,-0.83160400390625,0.48828125
3.5601772259997233,-0.008544921875,0.997802734375,-0.02099609375,2.288818359375,-0.83160400390625,0.46539306640625
3.5699377440000717,-0.008544921875,0.99755859375,-0.020751953125,2.3040771484375,-0.86212158203125,0.4730224609375
3.579688982999869,-0.0087890625,0.99755859375,-0.02099609375,2.288818359375,-0.8697509765625,0.48065185546875
3.58944383700009,-0.00830078125,0.998046875,-0.021240234375,2.288818359375,-0.8697509765625,0.457763671875
3.599213731999953,-0.00830078125,0.99853515625,-0.02099609375,2.3040771484375,-0.83160400390625,0.45013427734375
3.610071324999808,-0.008544921875,0.998046875,-0.020751953125,2.28118896484375,-0.8697509765625,0.4730224609375
3.619821858999785,-0.009033203125,0.998046875,-0.019775390625,2.288818359375,-0.87738037109375,0.48828125
3.6296942839999247,-0.008544921875,0.997802734375,-0.020263671875,2.288818359375,-0.86212158203125,0.457763671875
3.6394458740001028,-0.009033203125,0.997314453125,-0.0205078125,2.3040771484375,-0.8392333984375,0.457763671875
3.6492148729998917,-0.008544921875,0.997802734375,-0.0205078125,2.31170654296875,-0.8392333984375,0.45013427734375
3.6602218449997963,-0.0087890625,0.997314453125,-0.0205078125,2.288818359375,-0.8544921875,0.4730224609375
3.670069212999806,-0.00927734375,0.998046875,-0.020751953125,2.3040771484375,-0.8697509765625,0.46539306640625
3.679813026999909,-0.00927734375,0.997802734375,-0.02099609375,2.288818359375,-0.8697509765625,0.46539306640625
3.6895496409997577,-0.00830078125,0.99853515625,-0.0205078125,2.2735595703125,-0.8392333984375,0.457763671875
3.6993035989999044,-0.008544921875,0.997802734375,-0.0205078125,2.28118896484375,-0.8544921875,0.48065185546875
3.7101352399999996,-0.009033203125,0.998046875,-0.0205078125,2.29644775390625,-0.885009765625,0.49591064453125
3.7198785420000604,-0.009033203125,0.997802734375,-0.0205078125,2.31170654296875,-0.8697509765625,0.46539306640625
3.7296527569997124,-0.0087890625,0.99853515625,-0.020751953125,2.29644775390625,-0.8697509765625,0.48065185546875
3.739414300000135,-0.0087890625,0.998046875,-0.02099609375,2.29644775390625,-0.84686279296875,0.49591064453125
3.749165153999911,-0.0087890625,0.997802734375,-0.01953125,2.3193359375,-0.83160400390625,0.5035400390625
3.760004378999838,-0.008544921875,0.99755859375,-0.020263671875,2.3193359375,-0.83160400390625,0.48065185546875
3.7697366729998976,-0.008544921875,0.998046875,-0.0205078125,2.3193359375,-0.87738037109375,0.48065185546875
3.779503975999887,-0.008544921875,0.99853515625,-0.020263671875,2.3040771484375,-0.86212158203125,0.4730224609375
3.7892710539999825,-0.0087890625,0.998291015625,-0.021728515625,2.3193359375,-0.86212158203125,0.4730224609375
3.7993852109998443,-0.0087890625,0.99853515625,-0.02099609375,2.288818359375,-0.8544921875,0.48065185546875
3.8102440200000274,-0.008544921875,0.998046875,-0.020751953125,2.29644775390625,-0.8544921875,0.45013427734375
3.8199836740000137,-0.009033203125,0.997802734375,-0.020263671875,2.31170654296875,-0.8544921875,0.4730224609375
3.8297232639997674,-0.0087890625,0.99755859375,-0.02099609375,2.32696533203125,-0.8697509765625,0.48828125
3.8394940549997045,-0.009033203125,0.997802734375,-0.0205078125,2.3193359375,-0.86212158203125,0.4425048828125
3.849244365999766,-0.009765625,0.998046875,-0.020263671875,2.3040771484375,-0.8392333984375,0.4730224609375
3.8600958150000224,-0.009521484375,0.998291015625,-0.02001953125,2.26593017578125,-0.86212158203125,0.4730224609375
3.8698413889997028,-0.008544921875,0.99755859375,-0.020751953125,2.3040771484375,-0.8697509765625,0.46539306640625
3.879603986999882,-0.009033203125,0.996826171875,-0.020751953125,2.29644775390625,-0.8392333984375,0.4730224609375
3.890417323999827,-0.0087890625,0.998291015625,-0.0205078125,2.29644775390625,-0.84686279296875,0.457763671875
3.9001708339997094,-0.00830078125,0.998779296875,-0.0205078125,2.31170654296875,-0.8697509765625,0.4730224609375
3.9099065519999385,-0.008544921875,0.998046875,-0.0205078125,2.28118896484375,-0.8544921875,0.46539306640625
3.9196447669996815,-0.008544921875,0.99755859375,-0.0205078125,2.26593017578125,-0.8544921875,0.46539306640625
3.929401188999691,-0.00830078125,0.997802734375,-0.02099609375,2.3040771484375,-0.8544921875,0.48065185546875
3.939161323999997,-0.008544921875,0.998046875,-0.020751953125,2.34222412109375,-0.86212158203125,0.48828125
3.9500167729997884,-0.00927734375,0.998046875,-0.02001953125,2.3040771484375,-0.86212158203125,0.48065185546875
3.9597489709999536,-0.009033203125,0.998046875,-0.020751953125,2.288818359375,-0.8544921875,0.45013427734375
3.969597906999752,-0.008544921875,0.998046875,-0.020263671875,2.3193359375,-0.86212158203125,0.48065185546875
3.979371481999806,-0.008544921875,0.998046875,-0.02099609375,2.29644775390625,-0.8697509765625,0.46539306640625
3.9902099060000182,-0.00927734375,0.99755859375,-0.02001953125,2.28118896484375,-0.8544921875,0.48065185546875
3.9999507769998672,-0.008544921875,0.997802734375,-0.020263671875,2.29644775390625,-0.87738037109375,0.48065185546875
4.009690526999748,-0.0087890625,0.997802734375,-0.020751953125,2.3040771484375,-0.86212158203125,0.42724609375
4.019428932999745,-0.009033203125,0.99853515625,-0.02099609375,2.31170654296875,-0.8697509765625,0.46539306640625
4.029186827000103,-0.009033203125,0.998291015625,-0.021240234375,2.29644775390625,-0.83160400390625,0.46539306640625
4.040026083999692,-0.009033203125,0.998291015625,-0.021240234375,2.32696533203125,-0.86212158203125,0.49591064453125
4.049969421999776,-0.00927734375,0.997802734375,-0.02099609375,2.288818359375,-0.8392333984375,0.43487548828125
4.059740181000052,-0.00927734375,0.998046875,-0.02099609375,2.3040771484375,-0.885009765625,0.48065185546875
4.069512442999894,-0.00927734375,0.998046875,-0.020263671875,2.3040771484375,-0.86212158203125,0.4730224609375
4.079296450000129,-0.009033203125,0.998291015625,-0.020751953125,2.3040771484375,-0.86212158203125,0.45013427734375
4.090127035000023,-0.008544921875,0.99853515625,-0.0205078125,2.29644775390625,-0.84686279296875,0.45013427734375
4.099889730000086,-0.008544921875,0.998046875,-0.020263671875,2.29644775390625,-0.8392333984375,0.46539306640625
4.10965619999979,-0.0087890625,0.998046875,-0.020751953125,2.3040771484375,-0.84686279296875,0.46539306640625
4.120471137000095,-0.00927734375,0.99755859375,-0.02099609375,2.288818359375,-0.86212158203125,0.45013427734375
4.130231206999724,-0.009033203125,0.997802734375,-0.0205078125,2.32696533203125,-0.86212158203125,0.46539306640625
4.1399676609999005,-0.008544921875,0.998291015625,-0.020263671875,2.32696533203125,-0.86212158203125,0.45013427734375
4.1497932369998125,-0.008544921875,0.998046875,-0.02001953125,2.2735595703125,-0.84686279296875,0.46539306640625
4.159540058999937,-0.0087890625,0.998291015625,-0.020263671875,2.288818359375,-0.8392333984375,0.48065185546875
4.169313121999949,-0.00830078125,0.998779296875,-0.0205078125,2.3040771484375,-0.87738037109375,0.48065185546875
4.18015679500013,-0.009521484375,0.997802734375,-0.0205078125,2.29644775390625,-0.8697509765625,0.45013427734375
4.189952738000102,-0.009033203125,0.99755859375,-0.0205078125,2.28118896484375,-0.8544921875,0.43487548828125
4.199744169000041,-0.008544921875,0.998046875,-0.0205078125,2.288818359375,-0.8544921875,0.46539306640625
4.209516399999757,-0.009033203125,0.99853515625,-0.020751953125,2.29644775390625,-0.86212158203125,0.4730224609375
4.2192915749997155,-0.009033203125,0.998046875,-0.02099609375,2.29644775390625,-0.8697509765625,0.4730224609375
4.230142127999898,-0.008544921875,0.998046875,-0.02001953125,2.3040771484375,-0.8697509765625,0.5035400390625
4.239887253999768,-0.00927734375,0.998046875,-0.0205078125,2.28118896484375,-0.86212158203125,0.49591064453125
4.249659228999917,-0.0087890625,0.998779296875,-0.020751953125,2.3040771484375,-0.86212158203125,0.48065185546875
4.259401571000126,-0.0087890625,0.997802734375,-0.020263671875,2.29644775390625,-0.8544921875,0.457763671875
4.270255579999684,-0.009033203125,0.99755859375,-0.02099609375,2.2735595703125,-0.8697509765625,0.46539306640625
4.28006877200005,-0.009033203125,0.99853515625,-0.020751953125,2.32696533203125,-0.8544921875,0.49591064453125
4.289818537999963,-0.0087890625,0.9990234375,-0.021240234375,2.288818359375,-0.8697509765625,0.51116943359375
4.299562352000066,-0.009033203125,0.997802734375,-0.0205078125,2.3040771484375,-0.86212158203125,0.457763671875
4.309302581999873,-0.009033203125,0.997802734375,-0.02001953125,2.28118896484375,-0.8697509765625,0.4730224609375
4.320136751000064,-0.0087890625,0.998779296875,-0.02001953125,2.3040771484375,-0.8697509765625,0.457763671875
4.329889461999755,-0.008544921875,0.998779296875,-0.02099609375,2.288818359375,-0.86212158203125,0.41961669921875
4.339664443999936,-0.0087890625,0.997314453125,-0.021240234375,2.3040771484375,-0.84686279296875,0.46539306640625
4.349422882999988,-0.009033203125,0.997802734375,-0.02099609375,2.3193359375,-0.86212158203125,0.5035400390625
4.359190633999788,-0.009033203125,0.997802734375,-0.020751953125,2.2735595703125,-0.86212158203125,0.46539306640625
4.3700300499999685,-0.008544921875,0.998046875,-0.020751953125,2.29644775390625,-0.8697509765625,0.48065185546875
4.379772776999744,-0.0087890625,0.998779296875,-0.0205078125,2.288818359375,-0.84686279296875,0.48065185546875
4.389523950999774,-0.009033203125,0.998046875,-0.02001953125,2.3040771484375,-0.8697509765625,0.48065185546875
4.3993019419999655,-0.009033203125,0.99755859375,-0.020751953125,2.3040771484375,-0.8544921875,0.48065185546875
4.4101432469997235,-0.009521484375,0.997802734375,-0.0205078125,2.288818359375,-0.8697509765625,0.48065185546875
4.419886485000006,-0.009521484375,0.997314453125,-0.0205078125,2.29644775390625,-0.87738037109375,0.4730224609375
4.429635706999761,-0.009033203125,0.99755859375,-0.020751953125,2.29644775390625,-0.8544921875,0.46539306640625
4.4393787859999065,-0.0087890625,0.997802734375,-0.0205078125,2.288818359375,-0.87738037109375,0.457763671875
4.450223098999686,-0.0087890625,0.998291015625,-0.0205078125,2.28118896484375,-0.8544921875,0.4730224609375
4.459972896999716,-0.008544921875,0.99853515625,-0.020751953125,2.2735595703125,-0.8697509765625,0.48065185546875
4.469718694999756,-0.009033203125,0.99755859375,-0.0205078125,2.3040771484375,-0.86212158203125,0.48065185546875
4.479459756999859,-0.009033203125,0.997314453125,-0.02001953125,2.28118896484375,-0.84686279296875,0.48828125
4.490456104999794,-0.009033203125,0.997802734375,-0.0205078125,2.32696533203125,-0.8392333984375,0.4730224609375
4.500175951000074,-0.009033203125,0.998291015625,-0.020263671875,2.31170654296875,-0.84686279296875,0.45013427734375
4.509834707999744,-0.008544921875,0.998291015625,-0.02001953125,2.2735595703125,-0.86212158203125,0.457763671875
4.519477815999835,-0.0087890625,0.997314453125,-0.0205078125,2.3040771484375,-0.8697509765625,0.46539306640625
4.529421793999973,-0.008544921875,0.998046875,-0.020263671875,2.28118896484375,-0.8697509765625,0.49591064453125
4.539696625000033,-0.00927734375,0.99755859375,-0.02099609375,2.29644775390625,-0.8392333984375,0.46539306640625
4.549311476999719,-0.008544921875,0.99755859375,-0.020263671875,2.28118896484375,-0.86212158203125,0.4730224609375
4.560045835999972,-0.008544921875,0.998291015625,-0.02001953125,2.3040771484375,-0.8697509765625,0.4730224609375
4.569697136999821,-0.009033203125,0.99853515625,-0.0205078125,2.29644775390625,-0.8697509765625,0.45013427734375
4.579451383000105,-0.009033203125,0.99853515625,-0.0205078125,2.28118896484375,-0.86212158203125,0.457763671875
4.589197437999701,-0.009033203125,0.998046875,-0.0205078125,2.3040771484375,-0.8697509765625,0.4730224609375
4.6000538789999155,-0.0087890625,0.997314453125,-0.02099609375,2.288818359375,-0.86212158203125,0.49591064453125
4.60978297299971,-0.009765625,0.99755859375,-0.0205078125,2.28118896484375,-0.84686279296875,0.4730224609375
4.6195325789999515,-0.010009765625,0.998291015625,-0.0205078125,2.28118896484375,-0.8544921875,0.48065185546875
4.62928682599977,-0.009521484375,0.9990234375,-0.0205078125,2.3040771484375,-0.83160400390625,0.48065185546875
4.6401026899998215,-0.00927734375,0.998046875,-0.02001953125,2.28118896484375,-0.8544921875,0.45013427734375
4.649826343999848,-0.009521484375,0.998291015625,-0.0205078125,2.28118896484375,-0.8544921875,0.46539306640625
4.659553550000055,-0.008544921875,0.998291015625,-0.020263671875,2.2735595703125,-0.87738037109375,0.4730224609375
4.669302515999789,-0.00927734375,0.997314453125,-0.020263671875,2.3040771484375,-0.8697509765625,0.48065185546875
4.680129036999915,-0.009033203125,0.99755859375,-0.02099609375,2.288818359375,-0.87738037109375,0.4730224609375
4.689857522999773,-0.00830078125,0.997802734375,-0.021484375,2.3345947265625,-0.86212158203125,0.48065185546875
4.699617529000079,-0.0087890625,0.9990234375,-0.02099609375,2.288818359375,-0.8697509765625,0.51116943359375
4.709493794000082,-0.009033203125,0.998046875,-0.02099609375,2.29644775390625,-0.86212158203125,0.49591064453125
4.719273128999703,-0.009033203125,0.99755859375,-0.02099609375,2.288818359375,-0.8544921875,0.48065185546875
4.730115009999736,-0.009765625,0.997802734375,-0.021240234375,2.29644775390625,-0.86212158203125,0.49591064453125
4.73986032799985,-0.0087890625,0.998779296875,-0.020263671875,2.29644775390625,-0.8697509765625,0.45013427734375
4.7495987339998464,-0.009033203125,0.99853515625,-0.02099609375,2.29644775390625,-0.8697509765625,0.457763671875
4.759331763999853,-0.00927734375,0.998291015625,-0.020751953125,2.288818359375,-0.83160400390625,0.4425048828125
4.770152173000042,-0.008544921875,0.998779296875,-0.020751953125,2.29644775390625,-0.86212158203125,0.457763671875
4.779904498999713,-0.008544921875,0.997802734375,-0.020751953125,2.31170654296875,-0.86212158203125,0.49591064453125
4.7896663619999345,-0.0087890625,0.997802734375,-0.0205078125,2.3193359375,-0.8544921875,0.49591064453125
4.7993992639999306,-0.009033203125,0.998046875,-0.02099609375,2.29644775390625,-0.8697509765625,0.46539306640625
4.8102158319998125,-0.009033203125,0.99755859375,-0.020751953125,2.3193359375,-0.8697509765625,0.48065185546875
4.819948157999988,-0.008544921875,0.998291015625,-0.020263671875,2.3040771484375,-0.86212158203125,0.457763671875
4.830133420000038,-0.009033203125,0.997802734375,-0.02099609375,2.288818359375,-0.8544921875,0.49591064453125
4.83990110700006,-0.009765625,0.99755859375,-0.02099609375,2.288818359375,-0.8697509765625,0.4730224609375
4.849667448999753,-0.009033203125,0.997314453125,-0.0205078125,2.3040771484375,-0.86212158203125,0.46539306640625
4.859405726999739,-0.0087890625,0.99755859375,-0.0205078125,2.2735595703125,-0.87738037109375,0.46539306640625
4.87023634399975,-0.0087890625,0.99853515625,-0.020751953125,2.288818359375,-0.8544921875,0.46539306640625
4.879992414999833,-0.008544921875,0.998046875,-0.02099609375,2.3040771484375,-0.8697509765625,0.4730224609375
4.889731972999925,-0.008056640625,0.998046875,-0.02099609375,2.3345947265625,-0.8697509765625,0.48065185546875
4.899470474999816,-0.0087890625,0.997314453125,-0.02099609375,2.29644775390625,-0.885009765625,0.49591064453125
4.90923947400006,-0.0087890625,0.99755859375,-0.020263671875,2.3345947265625,-0.8544921875,0.4730224609375
4.920069417999912,-0.00927734375,0.998046875,-0.020751953125,2.32696533203125,-0.8544921875,0.457763671875
4.929804815999887,-0.009033203125,0.998046875,-0.020263671875,2.288818359375,-0.86212158203125,0.48065185546875
4.939538837999862,-0.0087890625,0.998046875,-0.020263671875,2.3345947265625,-0.8544921875,0.48828125
4.949300540999957,-0.00830078125,0.998046875,-0.020263671875,2.3040771484375,-0.8697509765625,0.4730224609375
4.960124533999988,-0.0087890625,0.99853515625,-0.020751953125,2.28118896484375,-0.8697509765625,0.4730224609375
4.969858875999762,-0.0087890625,0.998046875,-0.020263671875,2.28118896484375,-0.86212158203125,0.49591064453125
4.979620577999867,-0.009033203125,0.997314453125,-0.02099609375,2.28118896484375,-0.8392333984375,0.48828125
4.989358024000012,-0.0087890625,0.998291015625,-0.020751953125,2.3040771484375,-0.83160400390625,0.46539306640625
5.000188161000096,-0.008544921875,0.998779296875,-0.0205078125,2.3345947265625,-0.8544921875,0.457763671875
5.009946375999789,-0.0087890625,0.997802734375,-0.020751953125,2.288818359375,-0.8697509765625,0.457763671875
5.019710734,-0.008544921875,0.997802734375,-0.020263671875,2.3040771484375,-0.8697509765625,0.48065185546875
5.02945778000003,-0.009033203125,0.998046875,-0.020263671875,2.29644775390625,-0.8544921875,0.46539306640625
5.040282828999807,-0.008544921875,0.99853515625,-0.0205078125,2.3040771484375,-0.8544921875,0.46539306640625
5.050018226999782,-0.009033203125,0.997314453125,-0.0205078125,2.3193359375,-0.86212158203125,0.46539306640625
5.0597524410000005,-0.0087890625,0.998046875,-0.0205078125,2.3040771484375,-0.86212158203125,0.457763671875
5.069524160000128,-0.008056640625,0.99853515625,-0.0205078125,2.29644775390625,-0.8697509765625,0.45013427734375
5.079329766999763,-0.008544921875,0.99853515625,-0.021484375,2.25067138671875,-0.86212158203125,0.46539306640625
5.090158336000059,-0.0087890625,0.996826171875,-0.020263671875,2.3040771484375,-0.8544921875,0.4730224609375
5.099914374000036,-0.0087890625,0.99755859375,-0.0205078125,2.3193359375,-0.8697509765625,0.48065185546875
5.1096895810001115,-0.009033203125,0.998291015625,-0.02099609375,2.32696533203125,-0.8392333984375,0.46539306640625
5.119426930999907,-0.00927734375,0.998046875,-0.020751953125,2.3040771484375,-0.823974609375,0.46539306640625
5.1302836599998045,-0.0087890625,0.998046875,-0.02099609375,2.288818359375,-0.8392333984375,0.4730224609375
5.140069458999733,-0.0087890625,0.997314453125,-0.0205078125,2.29644775390625,-0.8544921875,0.457763671875
5.149864826999874,-0.009033203125,0.997802734375,-0.020263671875,2.3040771484375,-0.8697509765625,0.48065185546875
5.159694017999755,-0.008544921875,0.998046875,-0.0205078125,2.3345947265625,-0.8697509765625,0.46539306640625
5.170506010999816,-0.0087890625,0.998046875,-0.02099609375,2.2735595703125,-0.87738037109375,0.45013427734375
5.1802828169998065,-0.0087890625,0.99853515625,-0.020751953125,2.288818359375,-0.8544921875,0.457763671875
5.190045383999859,-0.0087890625,0.998779296875,-0.0205078125,2.3040771484375,-0.8544921875,0.49591064453125
5.1997991499997624,-0.009033203125,0.997802734375,-0.0205078125,2.26593017578125,-0.86212158203125,0.4425048828125
5.209547157000088,-0.0087890625,0.99755859375,-0.0205078125,2.288818359375,-0.84686279296875,0.457763671875
5.2193092429997705,-0.00830078125,0.997802734375,-0.02001953125,2.3040771484375,-0.8392333984375,0.48065185546875
5.230137875999844,-0.009033203125,0.998046875,-0.020751953125,2.288818359375,-0.8392333984375,0.48065185546875
5.239871737999692,-0.009033203125,0.99853515625,-0.02001953125,2.288818359375,-0.8544921875,0.46539306640625
5.24959782399992,-0.0087890625,0.998046875,-0.019775390625,2.29644775390625,-0.86212158203125,0.457763671875
5.259329189999789,-0.009521484375,0.99755859375,-0.020263671875,2.288818359375,-0.83160400390625,0.48065185546875
5.270145950999904,-0.0087890625,0.997802734375,-0.0205078125,2.25830078125,-0.8697509765625,0.48065185546875
5.279916708999735,-0.009033203125,0.997802734375,-0.020751953125,2.28118896484375,-0.8697509765625,0.46539306640625
5.289678891999756,-0.009033203125,0.998291015625,-0.021240234375,2.31170654296875,-0.83160400390625,0.48065185546875
5.299432049999723,-0.0087890625,0.998291015625,-0.021728515625,2.29644775390625,-0.86212158203125,0.46539306640625
5.309209337000084,-0.00830078125,0.998046875,-0.020263671875,2.288818359375,-0.86212158203125,0.4730224609375
5.320058897999843,-0.00830078125,0.998046875,-0.0205078125,2.29644775390625,-0.8544921875,0.4425048828125
5.329810775999704,-0.008544921875,0.997314453125,-0.02099609375,2.3040771484375,-0.8392333984375,0.46539306640625
5.339551039000071,-0.00927734375,0.9970703125,-0.02099609375,2.3040771484375,-0.87738037109375,0.4730224609375
5.349316068999997,-0.0087890625,0.997314453125,-0.02001953125,2.28118896484375,-0.8392333984375,0.48065185546875
5.36014777399987,-0.00927734375,0.997802734375,-0.02001953125,2.3193359375,-0.823974609375,0.45013427734375
5.369882980000057,-0.009033203125,0.998779296875,-0.019775390625,2.288818359375,-0.86212158203125,0.46539306640625
5.37962061799999,-0.008544921875,0.998291015625,-0.0205078125,2.2735595703125,-0.8544921875,0.4730224609375
5.389356015999965,-0.00830078125,0.997314453125,-0.0205078125,2.2735595703125,-0.8697509765625,0.4730224609375
5.40021565699999,-0.0087890625,0.99755859375,-0.0205078125,2.288818359375,-0.86212158203125,0.45013427734375
5.40995415999987,-0.009033203125,0.998291015625,-0.0205078125,2.29644775390625,-0.87738037109375,0.45013427734375
5.419689813999867,-0.0087890625,0.998291015625,-0.02099609375,2.2735595703125,-0.86212158203125,0.4730224609375
5.429446459999781,-0.0087890625,0.997802734375,-0.0205078125,2.29644775390625,-0.8697509765625,0.49591064453125
5.439205538999886,-0.00927734375,0.9970703125,-0.0205078125,2.29644775390625,-0.885009765625,0.46539306640625
5.450072123999689,-0.008544921875,0.997802734375,-0.0205078125,2.288818359375,-0.86212158203125,0.51116943359375
5.459812865999993,-0.009033203125,0.997802734375,-0.021484375,2.29644775390625,-0.86212158203125,0.48828125
5.469555591999779,-0.009033203125,0.99658203125,-0.0205078125,2.288818359375,-0.8697509765625,0.4730224609375
5.479324398999779,-0.008544921875,0.998046875,-0.0205078125,2.32696533203125,-0.86212158203125,0.43487548828125
5.490152295999906,-0.008544921875,0.998291015625,-0.020263671875,2.2735595703125,-0.8544921875,0.45013427734375
5.4998910219997015,-0.008544921875,0.998291015625,-0.02099609375,2.3345947265625,-0.86212158203125,0.46539306640625
5.5096269000000575,-0.0087890625,0.99755859375,-0.02099609375,2.3345947265625,-0.8544921875,0.46539306640625
5.51936578599998,-0.009521484375,0.99755859375,-0.020751953125,2.3040771484375,-0.86212158203125,0.48065185546875
5.53021045100013,-0.00927734375,0.9970703125,-0.0205078125,2.3040771484375,-0.8544921875,0.457763671875
5.54001583399986,-0.0087890625,0.998046875,-0.020263671875,2.3193359375,-0.86212158203125,0.45013427734375
5.549944419999974,-0.00927734375,0.998046875,-0.02001953125,2.3040771484375,-0.8544921875,0.46539306640625
5.559736395000073,-0.009521484375,0.998046875,-0.020751953125,2.3193359375,-0.84686279296875,0.46539306640625
5.569507025999883,-0.008544921875,0.998046875,-0.02099609375,2.3040771484375,-0.8697509765625,0.46539306640625
5.579478619999918,-0.0087890625,0.99853515625,-0.020751953125,2.3040771484375,-0.86212158203125,0.48065185546875
5.589246113999707,-0.009033203125,0.997314453125,-0.0205078125,2.2735595703125,-0.86212158203125,0.457763671875
5.600121083999966,-0.00830078125,0.997802734375,-0.020751953125,2.3193359375,-0.8392333984375,0.48065185546875
5.609879937999722,-0.0087890625,0.99853515625,-0.020263671875,2.288818359375,-0.86212158203125,0.48065185546875
5.619635368999752,-0.0087890625,0.997802734375,-0.020263671875,2.25067138671875,-0.8544921875,0.49591064453125
5.629441168000085,-0.009521484375,0.998291015625,-0.020263671875,2.31170654296875,-0.83160400390625,0.48065185546875
5.639257430999805,-0.008544921875,0.998046875,-0.020263671875,2.3040771484375,-0.86212158203125,0.48065185546875
5.650142864999907,-0.008544921875,0.998046875,-0.02099609375,2.288818359375,-0.8697509765625,0.46539306640625
5.659952408999743,-0.00830078125,0.99755859375,-0.02001953125,2.288818359375,-0.83160400390625,0.46539306640625
5.669745568000053,-0.008544921875,0.998046875,-0.019775390625,2.28118896484375,-0.86212158203125,0.46539306640625
5.679596135999873,-0.009033203125,0.998046875,-0.020751953125,2.3193359375,-0.86212158203125,0.48065185546875
5.689428078999754,-0.008544921875,0.997802734375,-0.020751953125,2.3345947265625,-0.87738037109375,0.45013427734375
5.699220085999968,-0.0087890625,0.998046875,-0.021240234375,2.29644775390625,-0.8544921875,0.48065185546875
5.7101053920000595,-0.009521484375,0.997314453125,-0.0205078125,2.29644775390625,-0.8544921875,0.5035400390625
5.719857878999846,-0.0087890625,0.998046875,-0.0205078125,2.3193359375,-0.8544921875,0.4730224609375
5.729603676999886,-0.008544921875,0.998291015625,-0.02099609375,2.28118896484375,-0.8544921875,0.46539306640625
5.73937219499976,-0.008544921875,0.998291015625,-0.0205078125,2.28118896484375,-0.86212158203125,0.46539306640625
5.750233340999785,-0.008544921875,0.997802734375,-0.0205078125,2.31170654296875,-0.8392333984375,0.457763671875
5.759991459000048,-0.008544921875,0.997802734375,-0.0205078125,2.288818359375,-0.8697509765625,0.46539306640625
5.7697395289997075,-0.0087890625,0.998779296875,-0.0205078125,2.29644775390625,-0.8544921875,0.46539306640625
5.779501552000056,-0.008544921875,0.998779296875,-0.0205078125,2.3193359375,-0.83160400390625,0.45013427734375
5.789288726999985,-0.008544921875,0.998046875,-0.021240234375,2.3040771484375,-0.86212158203125,0.41961669921875
5.800133392000134,-0.00927734375,0.998291015625,-0.02099609375,2.288818359375,-0.87738037109375,0.4425048828125
5.809881973999836,-0.008544921875,0.997314453125,-0.0205078125,2.3040771484375,-0.84686279296875,0.46539306640625
5.819634268999835,-0.00830078125,0.998046875,-0.02099609375,2.288818359375,-0.84686279296875,0.4730224609375
5.829379330999927,-0.0087890625,0.998046875,-0.021240234375,2.3040771484375,-0.8544921875,0.45013427734375
5.840222043999802,-0.00830078125,0.998046875,-0.021484375,2.288818359375,-0.8697509765625,0.46539306640625
5.849973089999821,-0.009033203125,0.998291015625,-0.020751953125,2.3193359375,-0.8544921875,0.48065185546875
5.859748168999886,-0.009521484375,0.998046875,-0.021240234375,2.3040771484375,-0.8544921875,0.43487548828125
5.869502158999694,-0.009033203125,0.998046875,-0.02099609375,2.288818359375,-0.8544921875,0.45013427734375
5.879288629999792,-0.009033203125,0.998291015625,-0.020751953125,2.28118896484375,-0.84686279296875,0.4730224609375
5.89013441499992,-0.0087890625,0.99853515625,-0.020751953125,2.3040771484375,-0.8392333984375,0.4730224609375
5.899884405999728,-0.00927734375,0.998046875,-0.021484375,2.29644775390625,-0.8697509765625,0.4730224609375
5.9097583660000055,-0.0087890625,0.998046875,-0.020751953125,2.288818359375,-0.87738037109375,0.49591064453125
5.919517860999804,-0.009521484375,0.99755859375,-0.020751953125,2.3040771484375,-0.81634521484375,0.4730224609375
5.929331148000074,-0.008544921875,0.997802734375,-0.02099609375,2.288818359375,-0.84686279296875,0.457763671875
5.940209670000058,-0.008544921875,0.997802734375,-0.020263671875,2.2735595703125,-0.83160400390625,0.457763671875
5.949967084000036,-0.00927734375,0.997802734375,-0.0205078125,2.28118896484375,-0.8544921875,0.457763671875
5.959741810999731,-0.00927734375,0.99755859375,-0.02099609375,2.29644775390625,-0.8392333984375,0.4425048828125
5.969503352999709,-0.009033203125,0.998046875,-0.0205078125,2.3040771484375,-0.8544921875,0.45013427734375
5.979282367999986,-0.009033203125,0.99853515625,-0.0205078125,2.288818359375,-0.84686279296875,0.5035400390625
5.990134200999819,-0.009033203125,0.997802734375,-0.021240234375,2.28118896484375,-0.8697509765625,0.49591064453125
5.999881534999986,-0.0087890625,0.998046875,-0.02099609375,2.3193359375,-0.8544921875,0.48828125
6.009628838000026,-0.008544921875,0.997802734375,-0.020751953125,2.3040771484375,-0.86212158203125,0.48065185546875
6.019378475999929,-0.009033203125,0.998046875,-0.02099609375,2.32696533203125,-0.8697509765625,0.457763671875
6.0302222450000045,-0.0087890625,0.998291015625,-0.0205078125,2.3345947265625,-0.87738037109375,0.457763671875
6.039986987999782,-0.009033203125,0.998291015625,-0.019775390625,2.288818359375,-0.86212158203125,0.42724609375
6.049863027999891,-0.009521484375,0.99853515625,-0.020263671875,2.28118896484375,-0.8392333984375,0.45013427734375
6.059635834999881,-0.009521484375,0.99853515625,-0.02001953125,2.29644775390625,-0.8392333984375,0.457763671875
6.069397088999722,-0.009033203125,0.998291015625,-0.020263671875,2.3193359375,-0.8544921875,0.51116943359375
6.080239641999924,-0.009033203125,0.99853515625,-0.02001953125,2.32696533203125,-0.86212158203125,0.48065185546875
6.090005184999882,-0.00927734375,0.998291015625,-0.0205078125,2.31170654296875,-0.8544921875,0.4730224609375
6.099772742999903,-0.009033203125,0.998046875,-0.0205078125,2.3040771484375,-0.86212158203125,0.45013427734375
6.109520493999753,-0.008544921875,0.997802734375,-0.019775390625,2.288818359375,-0.86212158203125,0.457763671875
6.119378454000071,-0.009033203125,0.997802734375,-0.020263671875,2.2735595703125,-0.86212158203125,0.46539306640625
6.129240989999744,-0.009033203125,0.998046875,-0.02001953125,2.288818359375,-0.86212158203125,0.4730224609375
6.14011807199995,-0.009521484375,0.997314453125,-0.02099609375,2.31170654296875,-0.8544921875,0.4730224609375
6.149958143999811,-0.009033203125,0.99853515625,-0.021240234375,2.2735595703125,-0.8544921875,0.43487548828125
6.159829096000067,-0.008544921875,0.998046875,-0.021728515625,2.3040771484375,-0.8544921875,0.46539306640625
6.169680271999823,-0.008544921875,0.998779296875,-0.02099609375,2.25830078125,-0.86212158203125,0.46539306640625
6.179585048999797,-0.0087890625,0.998291015625,-0.020751953125,2.29644775390625,-0.8544921875,0.457763671875
6.189415264999752,-0.00927734375,0.998291015625,-0.02099609375,2.31170654296875,-0.8544921875,0.457763671875
6.199237671999981,-0.009521484375,0.998046875,-0.020751953125,2.3040771484375,-0.86212158203125,0.5035400390625
6.2101520979999805,-0.00830078125,0.997802734375,-0.02099609375,2.25830078125,-0.8697509765625,0.5035400390625
6.219908616999874,-0.008544921875,0.997314453125,-0.02099609375,2.288818359375,-0.8697509765625,0.46539306640625
6.229665006999767,-0.009033203125,0.997802734375,-0.0205078125,2.28118896484375,-0.87738037109375,0.4730224609375
6.2394371420000425,-0.008544921875,0.998291015625,-0.02099609375,2.29644775390625,-0.87738037109375,0.48065185546875
6.250285263000023,-0.008544921875,0.998046875,-0.0205078125,2.3193359375,-0.8697509765625,0.46539306640625
6.260060214000077,-0.0087890625,0.998046875,-0.020751953125,2.28118896484375,-0.86212158203125,0.45013427734375
6.269819835999897,-0.0087890625,0.997314453125,-0.020751953125,2.3040771484375,-0.8544921875,0.457763671875
6.279610178999974,-0.009033203125,0.997802734375,-0.02099609375,2.3040771484375,-0.84686279296875,0.45013427734375
6.289421258999937,-0.0087890625,0.997314453125,-0.020263671875,2.3040771484375,-0.8392333984375,0.48065185546875
6.299244689999796,-0.009033203125,0.998291015625,-0.020751953125,2.288818359375,-0.8392333984375,0.48065185546875
6.310127467999791,-0.009033203125,0.997314453125,-0.020263671875,2.29644775390625,-0.8697509765625,0.457763671875
6.31988776199978,-0.00927734375,0.997314453125,-0.0205078125,2.3193359375,-0.87738037109375,0.457763671875
6.329642873000012,-0.009033203125,0.998046875,-0.021240234375,2.31170654296875,-0.8544921875,0.48065185546875
6.339395198999682,-0.0087890625,0.99755859375,-0.020263671875,2.288818359375,-0.8544921875,0.4730224609375
6.350240440000107,-0.00927734375,0.998046875,-0.019775390625,2.25067138671875,-0.8392333984375,0.48065185546875
6.359989246999703,-0.0087890625,0.998046875,-0.0205078125,2.25830078125,-0.8697509765625,0.48065185546875
6.369754468999872,-0.008056640625,0.997314453125,-0.0205078125,2.28118896484375,-0.8544921875,0.48065185546875
6.379505290999987,-0.009033203125,0.997802734375,-0.021240234375,2.288818359375,-0.84686279296875,0.46539306640625
6.38927598600003,-0.00830078125,0.998046875,-0.0205078125,2.31170654296875,-0.86212158203125,0.4730224609375
6.400153099999898,-0.008544921875,0.997314453125,-0.0205078125,2.288818359375,-0.8697509765625,0.48065185546875
6.409901137999896,-0.0087890625,0.998046875,-0.0205078125,2.288818359375,-0.8697509765625,0.4730224609375
6.419735162000052,-0.00927734375,0.998046875,-0.020751953125,2.29644775390625,-0.8697509765625,0.457763671875
6.429518080999969,-0.009521484375,0.99853515625,-0.02099609375,2.3040771484375,-0.87738037109375,0.45013427734375
6.439303207999728,-0.00927734375,0.997314453125,-0.019775390625,2.29644775390625,-0.8544921875,0.457763671875
6.450149504999899,-0.0087890625,0.997314453125,-0.020751953125,2.2735595703125,-0.8544921875,0.49591064453125
6.459905926999909,-0.0087890625,0.998046875,-0.021484375,2.28118896484375,-0.83160400390625,0.46539306640625
6.469756782999866,-0.009033203125,0.998291015625,-0.02099609375,2.28118896484375,-0.83160400390625,0.4730224609375
6.479506452999885,-0.00927734375,0.998779296875,-0.02099609375,2.288818359375,-0.86212158203125,0.49591064453125
6.489276444000097,-0.0087890625,0.998046875,-0.020751953125,2.3193359375,-0.8544921875,0.5035400390625
6.500143061000017,-0.008544921875,0.99755859375,-0.020263671875,2.3345947265625,-0.87738037109375,0.49591064453125
6.509948925000117,-0.00927734375,0.997314453125,-0.020263671875,2.31170654296875,-0.87738037109375,0.46539306640625
6.519755203999921,-0.00830078125,0.997314453125,-0.020751953125,2.3040771484375,-0.8697509765625,0.48065185546875
6.529501898000035,-0.00830078125,0.998046875,-0.019775390625,2.29644775390625,-0.8697509765625,0.48065185546875
6.5392776809999305,-0.008544921875,0.998291015625,-0.0205078125,2.29644775390625,-0.8544921875,0.5035400390625
6.550130090000039,-0.0087890625,0.99853515625,-0.0205078125,2.288818359375,-0.84686279296875,0.4730224609375
6.559869872000036,-0.009033203125,0.997802734375,-0.02099609375,2.26593017578125,-0.84686279296875,0.46539306640625
6.569619671000055,-0.00927734375,0.997314453125,-0.021484375,2.29644775390625,-0.8544921875,0.4730224609375
6.579392412999823,-0.009521484375,0.998046875,-0.02099609375,2.31170654296875,-0.8697509765625,0.48065185546875
6.590237494000121,-0.009033203125,0.998046875,-0.020263671875,2.3193359375,-0.8697509765625,0.48065185546875
6.600053694000053,-0.00927734375,0.998046875,-0.0205078125,2.29644775390625,-0.8697509765625,0.4730224609375
6.609804035999787,-0.0087890625,0.99853515625,-0.0205078125,2.3040771484375,-0.87738037109375,0.48065185546875
6.619607882999844,-0.0087890625,0.998046875,-0.0205078125,2.288818359375,-0.86212158203125,0.46539306640625
6.62939534599991,-0.008544921875,0.998046875,-0.020751953125,2.3193359375,-0.8544921875,0.4730224609375
6.640239050999753,-0.0087890625,0.997802734375,-0.0205078125,2.2735595703125,-0.8544921875,0.46539306640625
6.649989554000058,-0.008544921875,0.9970703125,-0.019775390625,2.28118896484375,-0.86212158203125,0.457763671875
6.659761463999985,-0.009033203125,0.997802734375,-0.020263671875,2.31170654296875,-0.83160400390625,0.46539306640625
6.669629600999997,-0.00927734375,0.998046875,-0.020263671875,2.29644775390625,-0.86212158203125,0.4730224609375
6.679420487999778,-0.009033203125,0.998291015625,-0.02099609375,2.3193359375,-0.86212158203125,0.49591064453125
6.690349345999948,-0.0087890625,0.997314453125,-0.0205078125,2.31170654296875,-0.86212158203125,0.5035400390625
6.700150792999921,-0.0087890625,0.998291015625,-0.020751953125,2.31170654296875,-0.87738037109375,0.457763671875
6.709909776000131,-0.008544921875,0.998046875,-0.020751953125,2.3345947265625,-0.8544921875,0.4730224609375
6.719685079000101,-0.009521484375,0.997802734375,-0.0205078125,2.29644775390625,-0.8697509765625,0.48828125
6.729454972999974,-0.00830078125,0.998046875,-0.021240234375,2.31170654296875,-0.87738037109375,0.46539306640625
6.739252355999724,-0.0087890625,0.99755859375,-0.021240234375,2.3040771484375,-0.86212158203125,0.457763671875
6.750136829999974,-0.0087890625,0.9970703125,-0.02099609375,2.3040771484375,-0.87738037109375,0.49591064453125
6.759889443999782,-0.008544921875,0.99755859375,-0.02099609375,2.2735595703125,-0.8697509765625,0.4730224609375
6.769633834999695,-0.00830078125,0.998291015625,-0.020751953125,2.26593017578125,-0.8544921875,0.49591064453125
6.779404080999939,-0.008544921875,0.998046875,-0.020263671875,2.29644775390625,-0.8697509765625,0.457763671875
6.7902448099998765,-0.009033203125,0.998779296875,-0.02001953125,2.3040771484375,-0.8697509765625,0.48065185546875
6.800005777000024,-0.0087890625,0.997802734375,-0.020751953125,2.288818359375,-0.86212158203125,0.4425048828125
6.809795543999826,-0.00927734375,0.99755859375,-0.0205078125,2.3193359375,-0.8544921875,0.4730224609375
6.819545949999792,-0.009033203125,0.99755859375,-0.0205078125,2.2735595703125,-0.8392333984375,0.4730224609375
6.8293185009997615,-0.00830078125,0.998046875,-0.020263671875,2.3040771484375,-0.86212158203125,0.46539306640625
6.8402687039997545,-0.008544921875,0.998046875,-0.020263671875,2.288818359375,-0.8544921875,0.4730224609375
6.8500078459996985,-0.009521484375,0.998046875,-0.021240234375,2.288818359375,-0.86212158203125,0.4730224609375
6.859773963999942,-0.00927734375,0.998291015625,-0.021240234375,2.29644775390625,-0.83160400390625,0.4730224609375
6.869502801999715,-0.0087890625,0.998046875,-0.020751953125,2.3040771484375,-0.86212158203125,0.457763671875
6.87927205699998,-0.0087890625,0.998291015625,-0.020751953125,2.29644775390625,-0.86212158203125,0.46539306640625
6.890096720999736,-0.009033203125,0.99853515625,-0.0205078125,2.3345947265625,-0.84686279296875,0.457763671875
6.899847383999713,-0.0087890625,0.998291015625,-0.02001953125,2.3040771484375,-0.87738037109375,0.48065185546875
6.9096070059999875,-0.009521484375,0.99853515625,-0.020751953125,2.3193359375,-0.8697509765625,0.48828125
6.91937770100003,-0.009033203125,0.998291015625,-0.02099609375,2.288818359375,-0.8697509765625,0.48065185546875
6.930217598000127,-0.0087890625,0.99755859375,-0.02099609375,2.2735595703125,-0.86212158203125,0.46539306640625
6.939976260000094,-0.008056640625,0.99755859375,-0.019775390625,2.31170654296875,-0.8544921875,0.48065185546875
6.949742026999957,-0.00830078125,0.998046875,-0.0205078125,2.3040771484375,-0.8392333984375,0.457763671875
6.959476656999868,-0.008544921875,0.998291015625,-0.02099609375,2.29644775390625,-0.8544921875,0.42724609375
6.970336234000115,-0.00830078125,0.99853515625,-0.021728515625,2.25830078125,-0.87738037109375,0.457763671875
6.98010046499985,-0.009521484375,0.99853515625,-0.02099609375,2.28118896484375,-0.8697509765625,0.49591064453125
6.989830679000079,-0.009033203125,0.997802734375,-0.0205078125,2.25830078125,-0.8544921875,0.48065185546875
6.999560701000064,-0.0087890625,0.997802734375,-0.020263671875,2.288818359375,-0.86212158203125,0.49591064453125
7.009313442999883,-0.00927734375,0.998046875,-0.020751953125,2.3040771484375,-0.84686279296875,0.4730224609375
7.0201371160001145,-0.008544921875,0.998046875,-0.020263671875,2.3040771484375,-0.83160400390625,0.45013427734375
7.029905953999787,-0.008544921875,0.998779296875,-0.020263671875,2.31170654296875,-0.8392333984375,0.49591064453125
7.039677288999883,-0.0087890625,0.998046875,-0.020263671875,2.29644775390625,-0.86212158203125,0.46539306640625
7.049440303999745,-0.008544921875,0.997802734375,-0.0205078125,2.28118896484375,-0.8392333984375,0.48828125
7.060288009000033,-0.008544921875,0.99755859375,-0.0205078125,2.29644775390625,-0.86212158203125,0.48065185546875
7.070026159000008,-0.00830078125,0.99755859375,-0.02001953125,2.28118896484375,-0.8697509765625,0.4730224609375
7.079759284999909,-0.00830078125,0.997802734375,-0.0205078125,2.3040771484375,-0.8544921875,0.46539306640625
7.089485018999767,-0.00927734375,0.99853515625,-0.0205078125,2.288818359375,-0.87738037109375,0.45013427734375
7.099266721999811,-0.009033203125,0.997802734375,-0.020263671875,2.29644775390625,-0.86212158203125,0.4730224609375
7.110190139999759,-0.009033203125,0.997802734375,-0.02099609375,2.29644775390625,-0.84686279296875,0.46539306640625
7.119985411000016,-0.008544921875,0.998046875,-0.02099609375,2.28118896484375,-0.8544921875,0.4425048828125
7.129744585000026,-0.0087890625,0.998046875,-0.020751953125,2.25067138671875,-0.86212158203125,0.45013427734375
7.139478447999863,-0.00830078125,0.997802734375,-0.020751953125,2.29644775390625,-0.84686279296875,0.46539306640625
7.150339720999909,-0.009033203125,0.998291015625,-0.0205078125,2.29644775390625,-0.8544921875,0.4730224609375
7.160220240999934,-0.0087890625,0.99853515625,-0.0205078125,2.25067138671875,-0.86212158203125,0.46539306640625
7.169972119999784,-0.009033203125,0.997802734375,-0.02099609375,2.2735595703125,-0.8392333984375,0.48065185546875
7.179737886000112,-0.00830078125,0.997314453125,-0.02099609375,2.28118896484375,-0.84686279296875,0.49591064453125
7.189491364999867,-0.00830078125,0.99755859375,-0.020263671875,2.2735595703125,-0.8697509765625,0.49591064453125
7.199268747000133,-0.009033203125,0.998046875,-0.020263671875,2.29644775390625,-0.86212158203125,0.48065185546875
7.210110947999965,-0.009033203125,0.997802734375,-0.0205078125,2.3040771484375,-0.86212158203125,0.48065185546875
7.21984141799976,-0.009033203125,0.998046875,-0.020751953125,2.288818359375,-0.84686279296875,0.457763671875
7.2296081770000455,-0.0087890625,0.99755859375,-0.020751953125,2.3040771484375,-0.86212158203125,0.48065185546875
7.239371062999908,-0.0087890625,0.998291015625,-0.020263671875,2.31170654296875,-0.8392333984375,0.457763671875
7.250192527999843,-0.008544921875,0.997802734375,-0.0205078125,2.3345947265625,-0.8697509765625,0.45013427734375
7.259919990000071,-0.008544921875,0.99853515625,-0.02099609375,2.3040771484375,-0.86212158203125,0.4730224609375
7.269653115999972,-0.008544921875,0.99853515625,-0.020263671875,2.288818359375,-0.84686279296875,0.49591064453125
7.279387170000064,-0.0087890625,0.99853515625,-0.021484375,2.31170654296875,-0.8697509765625,0.49591064453125
7.290210395000031,-0.008544921875,0.99755859375,-0.0205078125,2.32696533203125,-0.8697509765625,0.4730224609375
7.2999749129999145,-0.009033203125,0.99755859375,-0.019775390625,2.3345947265625,-0.8392333984375,0.46539306640625
7.3097362319999775,-0.0087890625,0.998046875,-0.020263671875,2.29644775390625,-0.84686279296875,0.46539306640625
7.3194764939999,-0.0087890625,0.99853515625,-0.021240234375,2.29644775390625,-0.8544921875,0.48828125
7.330297255000005,-0.008544921875,0.998291015625,-0.021484375,2.32696533203125,-0.84686279296875,0.46539306640625
7.340049996999824,-0.00830078125,0.998046875,-0.0205078125,2.29644775390625,-0.84686279296875,0.48828125
7.349784498999725,-0.00830078125,0.997314453125,-0.019775390625,2.28118896484375,-0.8697509765625,0.49591064453125
7.359515129000101,-0.009033203125,0.997314453125,-0.020263671875,2.31170654296875,-0.87738037109375,0.49591064453125
7.369264031000057,-0.008544921875,0.998291015625,-0.0205078125,2.288818359375,-0.8697509765625,0.43487548828125
7.38010555999972,-0.009033203125,0.998046875,-0.020263671875,2.288818359375,-0.8697509765625,0.457763671875
7.389836349999769,-0.00927734375,0.99755859375,-0.020751953125,2.3040771484375,-0.84686279296875,0.49591064453125
7.399615076999908,-0.0087890625,0.997802734375,-0.02099609375,2.28118896484375,-0.84686279296875,0.46539306640625
7.409381099999791,-0.00927734375,0.998046875,-0.02099609375,2.288818359375,-0.86212158203125,0.46539306640625
7.420210979999865,-0.00830078125,0.997802734375,-0.0205078125,2.28118896484375,-0.87738037109375,0.48828125
7.429946826000105,-0.008544921875,0.997314453125,-0.020263671875,2.29644775390625,-0.8697509765625,0.4730224609375
7.439695345000018,-0.008544921875,0.998046875,-0.02099609375,2.3040771484375,-0.8544921875,0.46539306640625
7.4494439589998365,-0.0078125,0.998291015625,-0.021240234375,2.3040771484375,-0.83160400390625,0.457763671875
7.460284303999742,-0.008544921875,0.998046875,-0.020751953125,2.31170654296875,-0.8544921875,0.48828125
7.470019477999813,-0.0087890625,0.99755859375,-0.02099609375,2.29644775390625,-0.86212158203125,0.48065185546875
7.479773051999928,-0.00830078125,0.997314453125,-0.020263671875,2.3193359375,-0.86212158203125,0.48828125
7.489515619000031,-0.008544921875,0.99755859375,-0.020751953125,2.29644775390625,-0.87738037109375,0.4730224609375
7.499272776999987,-0.00830078125,0.998291015625,-0.021240234375,2.2735595703125,-0.8392333984375,0.457763671875
7.510118241999862,-0.008544921875,0.9990234375,-0.020751953125,2.288818359375,-0.8392333984375,0.457763671875
7.519852647999869,-0.0087890625,0.998046875,-0.020751953125,2.29644775390625,-0.8544921875,0.46539306640625
7.529619086999901,-0.009033203125,0.998046875,-0.0205078125,2.3193359375,-0.86212158203125,0.48065185546875
7.539509110999916,-0.009521484375,0.997802734375,-0.020751953125,2.288818359375,-0.8697509765625,0.457763671875
7.549292157999844,-0.009033203125,0.998291015625,-0.0205078125,2.32696533203125,-0.8392333984375,0.45013427734375
7.560200663999694,-0.008544921875,0.998779296875,-0.020263671875,2.288818359375,-0.8697509765625,0.46539306640625
7.57001580799988,-0.008544921875,0.998046875,-0.02001953125,2.288818359375,-0.8544921875,0.45013427734375
7.579800134999914,-0.008544921875,0.998046875,-0.0205078125,2.29644775390625,-0.8544921875,0.4730224609375
7.589555597000071,-0.0087890625,0.997314453125,-0.0205078125,2.3040771484375,-0.8544921875,0.49591064453125
7.599331603999872,-0.00830078125,0.9970703125,-0.0205078125,2.288818359375,-0.83160400390625,0.4730224609375
7.610205069000131,-0.009033203125,0.9970703125,-0.020263671875,2.28118896484375,-0.8544921875,0.4730224609375
7.6200105170000825,-0.0087890625,0.998046875,-0.02001953125,2.288818359375,-0.8697509765625,0.48828125
7.629801852000128,-0.009521484375,0.99853515625,-0.020751953125,2.3040771484375,-0.87738037109375,0.46539306640625
7.6395550739998725,-0.009033203125,0.998291015625,-0.020751953125,2.32696533203125,-0.8392333984375,0.4730224609375
7.649425161999716,-0.00927734375,0.998046875,-0.021240234375,2.3193359375,-0.8392333984375,0.49591064453125
7.6602879080001,-0.009521484375,0.997314453125,-0.02001953125,2.3040771484375,-0.8697509765625,0.46539306640625
7.670031785999981,-0.00927734375,0.9970703125,-0.0205078125,2.288818359375,-0.86212158203125,0.5035400390625
7.6797920159997375,-0.00927734375,0.998046875,-0.021240234375,2.3040771484375,-0.8544921875,0.45013427734375
7.68956475899995,-0.009521484375,0.998046875,-0.0205078125,2.31170654296875,-0.87738037109375,0.4730224609375
7.699333757999739,-0.0087890625,0.998046875,-0.02001953125,2.3193359375,-0.86212158203125,0.48065185546875
7.710217462999935,-0.008544921875,0.99755859375,-0.0205078125,2.31170654296875,-0.86212158203125,0.46539306640625
7.72001666999995,-0.008544921875,0.997802734375,-0.02099609375,2.3193359375,-0.87738037109375,0.48065185546875
7.729804420999699,-0.008544921875,0.99755859375,-0.02099609375,2.31170654296875,-0.8697509765625,0.46539306640625
7.739651724999931,-0.00830078125,0.998779296875,-0.020751953125,2.31170654296875,-0.8392333984375,0.43487548828125
7.749548790000063,-0.00830078125,0.99853515625,-0.0205078125,2.3193359375,-0.8392333984375,0.48065185546875
7.759337820999917,-0.008056640625,0.998779296875,-0.0205078125,2.3193359375,-0.87738037109375,0.4730224609375
7.7702007899997625,-0.008544921875,0.998046875,-0.020751953125,2.3040771484375,-0.8392333984375,0.48065185546875
7.779993052999998,-0.00830078125,0.997802734375,-0.02099609375,2.3040771484375,-0.84686279296875,0.48828125
7.78980387699994,-0.008544921875,0.99755859375,-0.020751953125,2.2735595703125,-0.8697509765625,0.48065185546875
7.799552650999885,-0.009033203125,0.99755859375,-0.02099609375,2.31170654296875,-0.87738037109375,0.48065185546875
7.8093316979998235,-0.0087890625,0.99853515625,-0.020751953125,2.3193359375,-0.86212158203125,0.49591064453125
7.8201765230001,-0.009033203125,0.998779296875,-0.0205078125,2.3345947265625,-0.84686279296875,0.48065185546875
7.8299854900001264,-0.00927734375,0.998291015625,-0.020263671875,2.31170654296875,-0.8392333984375,0.48828125
7.839796442000079,-0.0087890625,0.998046875,-0.02099609375,2.29644775390625,-0.86212158203125,0.48828125
7.849547551999876,-0.0087890625,0.998046875,-0.020263671875,2.32696533203125,-0.8697509765625,0.48065185546875
7.859317254999951,-0.008056640625,0.99853515625,-0.019775390625,2.3193359375,-0.86212158203125,0.48828125
7.87016543999971,-0.00830078125,0.99853515625,-0.02099609375,2.3193359375,-0.8697509765625,0.48065185546875
7.879913509999824,-0.008544921875,0.998291015625,-0.021240234375,2.288818359375,-0.84686279296875,0.4425048828125
7.8897196929997335,-0.009033203125,0.99755859375,-0.02099609375,2.29644775390625,-0.8392333984375,0.46539306640625
7.8996353499996985,-0.0087890625,0.997314453125,-0.02099609375,2.3040771484375,-0.83160400390625,0.48065185546875
7.9094435500001055,-0.00927734375,0.997314453125,-0.02099609375,2.3040771484375,-0.84686279296875,0.4730224609375
7.920288566999716,-0.0087890625,0.998046875,-0.0205078125,2.29644775390625,-0.8392333984375,0.46539306640625
7.930052573000012,-0.008544921875,0.997802734375,-0.02099609375,2.3040771484375,-0.8697509765625,0.457763671875
7.939817508000033,-0.0087890625,0.998046875,-0.020751953125,2.3040771484375,-0.86212158203125,0.46539306640625
7.9495664739997665,-0.008544921875,0.998046875,-0.020751953125,2.3040771484375,-0.87738037109375,0.46539306640625
7.959335857000042,-0.008544921875,0.998046875,-0.02001953125,2.29644775390625,-0.87738037109375,0.46539306640625
7.970197994000046,-0.009521484375,0.998291015625,-0.020751953125,2.28118896484375,-0.86212158203125,0.45013427734375
7.979999984999722,-0.009033203125,0.998046875,-0.0205078125,2.29644775390625,-0.8544921875,0.45013427734375
7.989885850000064,-0.008544921875,0.998046875,-0.0205078125,2.288818359375,-0.8392333984375,0.48065185546875
7.999659520000023,-0.00927734375,0.99853515625,-0.020263671875,2.29644775390625,-0.8544921875,0.49591064453125
8.0094498630001,-0.0087890625,0.998046875,-0.021240234375,2.2735595703125,-0.86212158203125,0.49591064453125
8.020296224000049,-0.00830078125,0.996826171875,-0.0205078125,2.288818359375,-0.87738037109375,0.49591064453125
8.03006941500007,-0.009033203125,0.998046875,-0.020263671875,2.288818359375,-0.8544921875,0.46539306640625
8.039853005999703,-0.008544921875,0.998291015625,-0.020263671875,2.29644775390625,-0.87738037109375,0.4730224609375
8.049604276000082,-0.00830078125,0.99755859375,-0.02099609375,2.3040771484375,-0.86212158203125,0.45013427734375
8.059382843000094,-0.0087890625,0.997802734375,-0.0205078125,2.288818359375,-0.8544921875,0.45013427734375
8.070234356000128,-0.0087890625,0.99853515625,-0.02099609375,2.3040771484375,-0.8544921875,0.48065185546875
8.08001967500013,-0.009033203125,0.998046875,-0.0205078125,2.28118896484375,-0.86212158203125,0.457763671875
8.08981888199969,-0.00830078125,0.998046875,-0.020751953125,2.2735595703125,-0.83160400390625,0.46539306640625
8.0995665370001,-0.008544921875,0.99853515625,-0.0205078125,2.288818359375,-0.84686279296875,0.4730224609375
8.109336975000133,-0.008056640625,0.997802734375,-0.0205078125,2.3040771484375,-0.8697509765625,0.46539306640625
8.120176487999743,-0.009521484375,0.998046875,-0.021240234375,2.2735595703125,-0.8392333984375,0.49591064453125
8.12992039799974,-0.00927734375,0.99755859375,-0.021240234375,2.29644775390625,-0.8392333984375,0.45013427734375
8.13976901399974,-0.008544921875,0.997802734375,-0.020751953125,2.3040771484375,-0.84686279296875,0.43487548828125
8.149575389999882,-0.008544921875,0.99853515625,-0.021240234375,2.2735595703125,-0.8697509765625,0.457763671875
8.15933955599985,-0.0087890625,0.99853515625,-0.0205078125,2.3040771484375,-0.86212158203125,0.457763671875
8.170248637999975,-0.008544921875,0.998046875,-0.02001953125,2.3040771484375,-0.87738037109375,0.4730224609375
8.18007117399975,-0.0087890625,0.997802734375,-0.020263671875,2.2735595703125,-0.8697509765625,0.46539306640625
8.189821451999705,-0.00927734375,0.997802734375,-0.020263671875,2.288818359375,-0.87738037109375,0.46539306640625
8.199585266999748,-0.0087890625,0.998046875,-0.021484375,2.3040771484375,-0.84686279296875,0.48065185546875
8.209378969999761,-0.0087890625,0.997802734375,-0.0205078125,2.29644775390625,-0.87738037109375,0.46539306640625
8.220253203000084,-0.009033203125,0.997802734375,-0.02001953125,2.2735595703125,-0.8544921875,0.48065185546875
8.230053433999728,-0.0087890625,0.997802734375,-0.02001953125,2.3193359375,-0.86212158203125,0.48828125
8.239795712999694,-0.009033203125,0.998046875,-0.020263671875,2.3193359375,-0.86212158203125,0.4730224609375
8.249566759000118,-0.0087890625,0.997802734375,-0.020263671875,2.28118896484375,-0.84686279296875,0.45013427734375
8.259331085999747,-0.0087890625,0.99853515625,-0.020263671875,2.31170654296875,-0.84686279296875,0.48065185546875
8.270218567000029,-0.008544921875,0.998779296875,-0.020263671875,2.3193359375,-0.8392333984375,0.4730224609375
8.279957421999825,-0.00830078125,0.99853515625,-0.0205078125,2.3040771484375,-0.8697509765625,0.46539306640625
8.289693396000075,-0.009033203125,0.99853515625,-0.019775390625,2.3040771484375,-0.8392333984375,0.4730224609375
8.29943199399986,-0.008544921875,0.998291015625,-0.02001953125,2.29644775390625,-0.84686279296875,0.46539306640625
8.310260337999807,-0.008544921875,0.997314453125,-0.020263671875,2.29644775390625,-0.8544921875,0.4730224609375
8.320024217000082,-0.008544921875,0.998046875,-0.021484375,2.26593017578125,-0.86212158203125,0.46539306640625
8.329776542999753,-0.0087890625,0.998046875,-0.02099609375,2.31170654296875,-0.86212158203125,0.4730224609375
8.33951738199994,-0.00927734375,0.997802734375,-0.021240234375,2.288818359375,-0.8544921875,0.4730224609375
8.35037942300005,-0.0087890625,0.998046875,-0.020751953125,2.288818359375,-0.8544921875,0.457763671875
8.360145380999711,-0.008544921875,0.997802734375,-0.020751953125,2.28118896484375,-0.8544921875,0.4730224609375
8.36988935599993,-0.009033203125,0.998046875,-0.020263671875,2.28118896484375,-0.86212158203125,0.49591064453125
8.379642546000014,-0.009033203125,0.998291015625,-0.02099609375,2.288818359375,-0.86212158203125,0.45013427734375
8.389448216999881,-0.0087890625,0.998046875,-0.02099609375,2.3040771484375,-0.87738037109375,0.457763671875
8.400276913999733,-0.0087890625,0.998291015625,-0.02099609375,2.3040771484375,-0.84686279296875,0.46539306640625
8.410014135999972,-0.0087890625,0.99755859375,-0.020751953125,2.26593017578125,-0.86212158203125,0.43487548828125
8.419778847000089,-0.0087890625,0.997802734375,-0.020751953125,2.29644775390625,-0.8544921875,0.45013427734375
8.429515844999969,-0.009033203125,0.997314453125,-0.0205078125,2.288818359375,-0.86212158203125,0.5035400390625
8.44034095699999,-0.008056640625,0.998046875,-0.02099609375,2.28118896484375,-0.84686279296875,0.4425048828125
8.450090563999765,-0.00830078125,0.998291015625,-0.02099609375,2.29644775390625,-0.86212158203125,0.49591064453125
8.459827497999868,-0.0087890625,0.998046875,-0.020751953125,2.288818359375,-0.83160400390625,0.4730224609375
8.469561647999853,-0.009033203125,0.998046875,-0.0205078125,2.31170654296875,-0.8544921875,0.48065185546875
8.47931480599982,-0.0087890625,0.99755859375,-0.020751953125,2.288818359375,-0.86212158203125,0.49591064453125
8.490147950999926,-0.0087890625,0.998046875,-0.020751953125,2.3040771484375,-0.84686279296875,0.45013427734375
8.499879029000112,-0.009521484375,0.998046875,-0.02099609375,2.3040771484375,-0.86212158203125,0.46539306640625
8.509648763999849,-0.009521484375,0.997802734375,-0.02099609375,2.28118896484375,-0.86212158203125,0.43487548828125
8.51941174600006,-0.008544921875,0.998046875,-0.021240234375,2.29644775390625,-0.86212158203125,0.45013427734375
8.530247706999944,-0.0087890625,0.998046875,-0.0205078125,2.3040771484375,-0.86212158203125,0.4730224609375
8.540014144999986,-0.008544921875,0.997802734375,-0.020263671875,2.29644775390625,-0.84686279296875,0.4730224609375
8.549870089999786,-0.009521484375,0.99755859375,-0.02099609375,2.29644775390625,-0.84686279296875,0.4730224609375
8.559649903999798,-0.00927734375,0.998046875,-0.020263671875,2.28118896484375,-0.86212158203125,0.4425048828125
8.569448920000013,-0.008544921875,0.997802734375,-0.0205078125,2.32696533203125,-0.8544921875,0.48065185546875
8.580298801000026,-0.0087890625,0.997314453125,-0.02099609375,2.29644775390625,-0.8544921875,0.48828125
8.590037398999812,-0.0087890625,0.998046875,-0.0205078125,2.288818359375,-0.86212158203125,0.48828125
8.599781596999946,-0.008544921875,0.997802734375,-0.021240234375,2.2735595703125,-0.885009765625,0.4730224609375
8.609516675000123,-0.0087890625,0.99853515625,-0.02099609375,2.28118896484375,-0.84686279296875,0.457763671875
8.620386331999725,-0.00927734375,0.998046875,-0.021240234375,2.25830078125,-0.823974609375,0.457763671875
8.630155778999779,-0.008544921875,0.998046875,-0.021240234375,2.32696533203125,-0.87738037109375,0.46539306640625
8.639889096999923,-0.009033203125,0.998291015625,-0.020751953125,2.3345947265625,-0.8697509765625,0.48828125
8.649620399000014,-0.0087890625,0.997802734375,-0.019775390625,2.32696533203125,-0.84686279296875,0.48828125
8.659373077000055,-0.009033203125,0.997802734375,-0.02001953125,2.3040771484375,-0.8697509765625,0.48828125
8.67019467,-0.009033203125,0.997314453125,-0.020263671875,2.32696533203125,-0.8697509765625,0.46539306640625
8.679926708000039,-0.008056640625,0.99853515625,-0.0205078125,2.29644775390625,-0.8544921875,0.45013427734375
8.689659673999813,-0.008544921875,0.997802734375,-0.0205078125,2.3040771484375,-0.8697509765625,0.49591064453125
8.699433856999804,-0.0087890625,0.998291015625,-0.0205078125,2.29644775390625,-0.8697509765625,0.4730224609375
8.710276186000101,-0.008544921875,0.997802734375,-0.0205078125,2.29644775390625,-0.8697509765625,0.46539306640625
8.72002617599992,-0.008544921875,0.9970703125,-0.020263671875,2.31170654296875,-0.8697509765625,0.46539306640625
8.729791206999835,-0.009033203125,0.997314453125,-0.020263671875,2.31170654296875,-0.83160400390625,0.45013427734375
8.739543821000098,-0.00927734375,0.998046875,-0.0205078125,2.3040771484375,-0.8392333984375,0.4730224609375
8.750396710000132,-0.0087890625,0.99853515625,-0.0205078125,2.28118896484375,-0.8392333984375,0.48828125
8.760163564999857,-0.008544921875,0.998291015625,-0.019775390625,2.2735595703125,-0.83160400390625,0.46539306640625
8.769895346999874,-0.0087890625,0.997802734375,-0.020751953125,2.2735595703125,-0.8392333984375,0.45013427734375
8.779650392999883,-0.00927734375,0.997314453125,-0.021728515625,2.28118896484375,-0.8392333984375,0.4730224609375
8.78943247999996,-0.0087890625,0.998046875,-0.02099609375,2.288818359375,-0.87738037109375,0.46539306640625
8.800253335999969,-0.008544921875,0.9990234375,-0.020751953125,2.29644775390625,-0.8697509765625,0.46539306640625
8.810049534999962,-0.009521484375,0.997802734375,-0.020751953125,2.25830078125,-0.83160400390625,0.4425048828125
8.819786726000075,-0.009033203125,0.997314453125,-0.020751953125,2.288818359375,-0.8392333984375,0.457763671875
8.829529260000072,-0.009033203125,0.99755859375,-0.02099609375,2.3193359375,-0.84686279296875,0.48828125
8.840395653000087,-0.0087890625,0.99755859375,-0.020263671875,2.2735595703125,-0.86212158203125,0.46539306640625
8.850155147999885,-0.009033203125,0.998046875,-0.0205078125,2.29644775390625,-0.84686279296875,0.48828125
8.859890738000104,-0.0087890625,0.998291015625,-0.020263671875,2.288818359375,-0.84686279296875,0.457763671875
8.869661687999724,-0.00830078125,0.998046875,-0.02099609375,2.3040771484375,-0.8392333984375,0.48065185546875
8.879422558999977,-0.00830078125,0.99755859375,-0.02001953125,2.3193359375,-0.84686279296875,0.49591064453125
8.89025106300005,-0.0087890625,0.9970703125,-0.020751953125,2.32696533203125,-0.8697509765625,0.46539306640625
8.899983613000131,-0.0087890625,0.997802734375,-0.020751953125,2.28118896484375,-0.8697509765625,0.457763671875
8.90971485099999,-0.008544921875,0.998046875,-0.0205078125,2.288818359375,-0.8392333984375,0.45013427734375
8.919445385000017,-0.008544921875,0.998046875,-0.020751953125,2.288818359375,-0.86212158203125,0.49591064453125
8.930266529999699,-0.008544921875,0.998046875,-0.02099609375,2.288818359375,-0.86212158203125,0.49591064453125
8.940028072000132,-0.008056640625,0.998291015625,-0.02099609375,2.288818359375,-0.87738037109375,0.45013427734375
8.949793070999931,-0.008544921875,0.997802734375,-0.0205078125,2.28118896484375,-0.8544921875,0.45013427734375
8.959532724999917,-0.0087890625,0.998046875,-0.020751953125,2.28118896484375,-0.84686279296875,0.457763671875
8.970358957999906,-0.00927734375,0.998291015625,-0.0205078125,2.3040771484375,-0.84686279296875,0.48828125
8.98008939600004,-0.009033203125,0.99853515625,-0.0205078125,2.3193359375,-0.86212158203125,0.48828125
8.989818905999982,-0.008544921875,0.998291015625,-0.020751953125,2.29644775390625,-0.86212158203125,0.45013427734375
8.999552127999777,-0.00830078125,0.99755859375,-0.020263671875,2.29644775390625,-0.87738037109375,0.48065185546875
9.009306085999924,-0.009033203125,0.997802734375,-0.0205078125,2.288818359375,-0.8697509765625,0.51116943359375
9.020165342999917,-0.009033203125,0.998291015625,-0.0205078125,2.29644775390625,-0.8544921875,0.5035400390625
9.02990230899968,-0.0087890625,0.998046875,-0.02099609375,2.3040771484375,-0.8544921875,0.46539306640625
9.039664683999945,-0.008544921875,0.998291015625,-0.020263671875,2.3040771484375,-0.8544921875,0.457763671875
9.049430674999712,-0.009033203125,0.998779296875,-0.021728515625,2.3040771484375,-0.86212158203125,0.4730224609375
9.060255434999817,-0.009033203125,0.998046875,-0.0205078125,2.288818359375,-0.8697509765625,0.46539306640625
9.069986864999919,-0.0087890625,0.997802734375,-0.0205078125,2.28118896484375,-0.8544921875,0.46539306640625
9.07971474299984,-0.00830078125,0.997802734375,-0.0205078125,2.288818359375,-0.83160400390625,0.4730224609375
9.089481693999915,-0.0087890625,0.997802734375,-0.0205078125,2.29644775390625,-0.8544921875,0.46539306640625
9.100304917999892,-0.0087890625,0.99853515625,-0.0205078125,2.28118896484375,-0.8544921875,0.46539306640625
9.110042683999836,-0.008056640625,0.998291015625,-0.020751953125,2.28118896484375,-0.8392333984375,0.48065185546875
9.11980355500009,-0.0087890625,0.998046875,-0.020751953125,2.3193359375,-0.8544921875,0.457763671875
9.129537768999853,-0.009033203125,0.998291015625,-0.02099609375,2.288818359375,-0.8392333984375,0.4730224609375
9.140364769999906,-0.0087890625,0.998046875,-0.020263671875,2.288818359375,-0.8697509765625,0.49591064453125
9.150101352000092,-0.00830078125,0.998291015625,-0.020263671875,2.34222412109375,-0.8697509765625,0.46539306640625
9.15984033399991,-0.009033203125,0.997314453125,-0.020263671875,2.29644775390625,-0.8392333984375,0.51116943359375
9.169672788999833,-0.009033203125,0.99755859375,-0.02099609375,2.32696533203125,-0.83160400390625,0.48828125
9.17944620399976,-0.00830078125,0.998291015625,-0.02001953125,2.288818359375,-0.8392333984375,0.4730224609375
9.190276596999865,-0.009033203125,0.998046875,-0.020263671875,2.2735595703125,-0.84686279296875,0.48065185546875
9.200052859999687,-0.009521484375,0.99755859375,-0.020263671875,2.3040771484375,-0.8697509765625,0.49591064453125
9.209804002000055,-0.009521484375,0.998046875,-0.020751953125,2.29644775390625,-0.86212158203125,0.4730224609375
9.219542792000084,-0.0087890625,0.998046875,-0.0205078125,2.32696533203125,-0.86212158203125,0.48065185546875
9.230364480999924,-0.009033203125,0.998046875,-0.020751953125,2.29644775390625,-0.84686279296875,0.4730224609375
9.240094022999983,-0.009033203125,0.997802734375,-0.021484375,2.3040771484375,-0.8697509765625,0.46539306640625
9.249835148999864,-0.0087890625,0.997802734375,-0.020751953125,2.288818359375,-0.86212158203125,0.46539306640625
9.259740277999754,-0.00927734375,0.99853515625,-0.0205078125,2.288818359375,-0.8392333984375,0.46539306640625
9.269518491999861,-0.0087890625,0.997802734375,-0.020751953125,2.28118896484375,-0.8544921875,0.46539306640625
9.280452342999979,-0.009033203125,0.997314453125,-0.02099609375,2.288818359375,-0.8392333984375,0.46539306640625
9.290235453999685,-0.008544921875,0.997802734375,-0.02001953125,2.288818359375,-0.8544921875,0.46539306640625
9.300045124999997,-0.008544921875,0.997802734375,-0.02099609375,2.2735595703125,-0.8392333984375,0.48065185546875
9.309852939999928,-0.00927734375,0.998046875,-0.020751953125,2.2735595703125,-0.8544921875,0.457763671875
9.319662163999965,-0.0087890625,0.998291015625,-0.02099609375,2.2735595703125,-0.83160400390625,0.46539306640625
9.329480411000077,-0.008544921875,0.998046875,-0.020751953125,2.28118896484375,-0.8544921875,0.46539306640625
9.340423893999741,-0.008544921875,0.99853515625,-0.0205078125,2.288818359375,-0.86212158203125,0.4730224609375
9.350217949000125,-0.0087890625,0.99853515625,-0.0205078125,2.2735595703125,-0.8697509765625,0.48065185546875
9.360053925000102,-0.009521484375,0.998046875,-0.020263671875,2.3193359375,-0.8697509765625,0.48828125
9.370071408000058,-0.009033203125,0.99755859375,-0.020751953125,2.288818359375,-0.8697509765625,0.45013427734375
9.37985775099969,-0.009521484375,0.997802734375,-0.020263671875,2.2735595703125,-0.8544921875,0.45013427734375
9.389613500999985,-0.009521484375,0.998046875,-0.019775390625,2.288818359375,-0.83160400390625,0.4425048828125
9.39951485399979,-0.008544921875,0.998046875,-0.0205078125,2.3040771484375,-0.8697509765625,0.4730224609375
9.409335372999976,-0.008544921875,0.998046875,-0.020263671875,2.3193359375,-0.86212158203125,0.48065185546875
9.42022483899973,-0.00830078125,0.99951171875,-0.020751953125,2.29644775390625,-0.8697509765625,0.48828125
9.429980748999697,-0.009033203125,0.998046875,-0.020751953125,2.25830078125,-0.86212158203125,0.48828125
9.43973237199998,-0.0087890625,0.997802734375,-0.020263671875,2.2735595703125,-0.885009765625,0.46539306640625
9.449487001999842,-0.0087890625,0.998046875,-0.020751953125,2.3040771484375,-0.8544921875,0.48065185546875
9.459327393999956,-0.009033203125,0.99853515625,-0.0205078125,2.2735595703125,-0.86212158203125,0.4730224609375
9.47026604499979,-0.008544921875,0.998291015625,-0.02099609375,2.288818359375,-0.84686279296875,0.45013427734375
9.480071683999995,-0.00927734375,0.997802734375,-0.020751953125,2.3040771484375,-0.86212158203125,0.48065185546875
9.489857226999902,-0.009521484375,0.997802734375,-0.021240234375,2.32696533203125,-0.8697509765625,0.4730224609375
9.499683185999857,-0.009521484375,0.998046875,-0.021240234375,2.26593017578125,-0.8697509765625,0.46539306640625
9.509488473999681,-0.00927734375,0.997802734375,-0.02099609375,2.26593017578125,-0.8392333984375,0.4730224609375
9.520436691999748,-0.009033203125,0.99853515625,-0.019775390625,2.32696533203125,-0.8544921875,0.48065185546875
9.530227002999709,-0.00927734375,0.998046875,-0.020263671875,2.29644775390625,-0.87738037109375,0.48828125
9.539978081999834,-0.009521484375,0.998291015625,-0.02099609375,2.31170654296875,-0.8697509765625,0.48065185546875
9.549729255999864,-0.00830078125,0.998046875,-0.0205078125,2.3040771484375,-0.84686279296875,0.4730224609375
9.55950126300013,-0.009033203125,0.997802734375,-0.020751953125,2.3040771484375,-0.86212158203125,0.49591064453125
9.569330741999693,-0.009033203125,0.997802734375,-0.02099609375,2.32696533203125,-0.8697509765625,0.46539306640625
9.580224431999795,-0.00830078125,0.997802734375,-0.0205078125,2.3040771484375,-0.885009765625,0.457763671875
9.589980694000133,-0.008544921875,0.997802734375,-0.02099609375,2.3193359375,-0.8544921875,0.4730224609375
9.599750044999837,-0.008544921875,0.998291015625,-0.0205078125,2.31170654296875,-0.86212158203125,0.49591064453125
9.609503523000058,-0.00830078125,0.997802734375,-0.021240234375,2.2735595703125,-0.86212158203125,0.49591064453125
9.620346811999752,-0.009033203125,0.997802734375,-0.0205078125,2.3345947265625,-0.8392333984375,0.45013427734375
9.630080513999928,-0.00927734375,0.998046875,-0.020751953125,2.3193359375,-0.84686279296875,0.46539306640625
9.63992221799981,-0.008544921875,0.997802734375,-0.0205078125,2.34222412109375,-0.84686279296875,0.4730224609375
9.649710512999718,-0.0087890625,0.997802734375,-0.0205078125,2.3193359375,-0.8544921875,0.48065185546875
9.659493784000006,-0.008544921875,0.997802734375,-0.02099609375,2.3193359375,-0.8392333984375,0.46539306640625
9.670433970999966,-0.009033203125,0.998291015625,-0.02099609375,2.29644775390625,-0.8544921875,0.48828125
9.680228633999832,-0.009033203125,0.998046875,-0.020751953125,2.288818359375,-0.8544921875,0.457763671875
9.689982752000105,-0.009033203125,0.99755859375,-0.020751953125,2.29644775390625,-0.86212158203125,0.4730224609375
9.699735846999829,-0.009033203125,0.997802734375,-0.02099609375,2.3193359375,-0.84686279296875,0.46539306640625
9.709489868999754,-0.0087890625,0.997802734375,-0.020751953125,2.3040771484375,-0.8544921875,0.48065185546875
9.720439111999895,-0.008056640625,0.997314453125,-0.0205078125,2.288818359375,-0.86212158203125,0.4730224609375
9.730245615000058,-0.00830078125,0.998046875,-0.020263671875,2.28118896484375,-0.8697509765625,0.48065185546875
9.740046901999904,-0.009033203125,0.998291015625,-0.0205078125,2.32696533203125,-0.8544921875,0.4730224609375
9.7498748779999,-0.0087890625,0.998046875,-0.02001953125,2.3040771484375,-0.8392333984375,0.46539306640625
9.75968973299996,-0.00927734375,0.997802734375,-0.020263671875,2.2735595703125,-0.8544921875,0.4730224609375
9.769523468999978,-0.009033203125,0.998291015625,-0.020263671875,2.29644775390625,-0.86212158203125,0.457763671875
9.779345171999921,-0.009033203125,0.99853515625,-0.0205078125,2.29644775390625,-0.87738037109375,0.49591064453125
9.790232750000087,-0.0087890625,0.998046875,-0.020751953125,2.29644775390625,-0.8544921875,0.5035400390625
9.799988052000117,-0.008544921875,0.997314453125,-0.0205078125,2.32696533203125,-0.87738037109375,0.48828125
9.809741626999767,-0.008544921875,0.997802734375,-0.020263671875,2.28118896484375,-0.8697509765625,0.46539306640625
9.819495296999776,-0.009033203125,0.998046875,-0.020263671875,2.3193359375,-0.84686279296875,0.5035400390625
